Acc X       , Acc Y       , Acc Z       , Gyro X      , Gyro Y      , Gyro Z      , Magn X      , Magn Y      , Magn Z      , Euler X     , Euler Y     , Euler Z     , Time        , Status      , LowRate X   , LowRate Y   , LowRate Z    
0.0133447889, -0.006264914, -9.797265   , 0.001263323 , 0.006839903 , 0.00314169819, 0.4374042   , 0.805953145 , 0.744423    , 0.0007708237, 0.00121063564, -1.07242131 , 0           , 23          , 11          , 0.0346410163, 0.0346410163
0.0154716391, -0.0170100965, -9.815425   , 0.001263323 , 0.006839903 , 0.00314169819, 0.4371253   , 0.806093752 , 0.743580043 , 0.0007834959, 0.00127901009, -1.07238984 , 0.01        , 23          , 12          , 0.0346410163, 0
-0.0140886046, -0.0249271952, -9.784439   , 0.001263323 , 0.006839903 , 0.00314169819, 0.438089222 , 0.806225836 , 0.744285047 , 0.000796170556, 0.00134738418, -1.07235837 , 0.02        , 23          , 50          , 0           , 0
0.01019606  , -0.004889481, -9.793199   , 0.001263323 , 0.006839903 , 0.00314169819, 0.437529385 , 0.806923866 , 0.742880046 , 0.0008088472, 0.00141575781, -1.0723269  , 0.03        , 23          , 11          , 0.0346410163, 0.0346410163
0.00804104  , -0.00281411037, -9.821191   , 0.001263323 , 0.006839903 , 0.00314169819, 0.437403649 , 0.806092143 , 0.7445633   , 0.0008215262, 0.00148413109, -1.07229519 , 0.04        , 23          , 12          , 0.0346410163, 0
0.0119523164, -0.009794943, -9.805433   , 0.001263323 , 0.006839903 , 0.00314169819, 0.438086361 , 0.806225538 , 0.743443    , 0.000834207342, 0.001552504 , -1.07226372 , 0.05        , 23          , 50          , 0           , 0
0.0200515762, -0.0104429983, -9.797731   , 0.001263323 , 0.006839903 , 0.00314169819, 0.438086361 , 0.806225538 , 0.743443    , 0.000846890558, 0.00162087672, -1.07223225 , 0.06        , 23          , 11          , 0.0346410163, 0.0346410163
0.0138808833, -0.03103254 , -9.812851   , 0.001263323 , 0.006839903 , 0.00314169819, 0.437396944 , 0.806230366 , 0.7428793   , 0.00085957587, 0.00168924883, -1.07220054 , 0.07        , 23          , 12          , 0.0346410163, 0
0.0073541794, -0.0142740346, -9.801878   , 0.001263323 , 0.006839903 , 0.00314169819, 0.437542647 , 0.805952251 , 0.7447041   , 0.0008722635, 0.00175762072, -1.07216907 , 0.08        , 23          , 50          , 0           , 0
0.007893472 , -0.0114306677, -9.818562   , 0.001263323 , 0.006839903 , 0.00314169819, 0.437807828 , 0.8066442   , 0.7433019   , 0.000884953246, 0.0018259919, -1.07213759 , 0.09        , 23          , 11          , 0.0346410163, 0.0346410163
0.009692222 , -0.00590501353, -9.778756   , 0.00126438623, 0.006836012 , 0.00314170355, 0.4372662   , 0.8059541   , 0.7442821   , 0.000962604652, 0.00165656663, -1.07210588 , 0.1         , 23          , 12          , 0.0346410163, 0
0.019625105 , -0.009927852, -9.80450249 , 0.00126438623, 0.006836012 , 0.00314170355, 0.43836388  , 0.8059457   , 0.7435842   , 0.0009753018, 0.001724896 , -1.07207441 , 0.11        , 23          , 50          , 0           , 0
0.0113208676, -0.01936422 , -9.796039   , 0.00126438623, 0.006836012 , 0.00314170355, 0.43836388  , 0.8059457   , 0.7435842   , 0.000988001 , 0.0017932253, -1.0720427  , 0.12        , 23          , 11          , 0.0346410163, 0.0346410163
0.0189103335, 0.003980009 , -9.7885685  , 0.00126438623, 0.006836012 , 0.00314170355, 0.437393    , 0.806507945 , 0.742318034 , 0.00100070238, 0.00186155387, -1.07201123 , 0.13        , 23          , 12          , 0.0346410163, 0
-0.000456988346, 0.00358497351, -9.812129   , 0.00126438623, 0.006836012 , 0.00314170355, 0.437542021 , 0.8062302   , 0.7451252   , 0.00101340609, 0.00192988233, -1.07197976 , 0.14        , 23          , 50          , 0           , 0
0.0187579542, -0.007655099, -9.804033   , 0.00126438623, 0.006836012 , 0.00314170355, 0.438220829 , 0.8066412   , 0.743443668 , 0.00102611177, 0.00199821033, -1.07194829 , 0.15        , 23          , 11          , 0.0346410163, 0.0346410163
0.0154317534, 0.00660376856, -9.825593   , 0.00126438623, 0.006836012 , 0.00314170355, 0.437405825 , 0.80553627  , 0.744001746 , 0.00103881978, 0.00206653774, -1.07191682 , 0.16        , 23          , 12          , 0.0346410163, 0
0.002268639 , -0.0240074955, -9.818698   , 0.00126438623, 0.006836012 , 0.00314170355, 0.437405825 , 0.80553627  , 0.744001746 , 0.00105152989, 0.002134865 , -1.07188487 , 0.17        , 23          , 50          , 0           , 0
-0.0115927784, -0.0126290927, -9.799221   , 0.00126438623, 0.006836012 , 0.00314170355, 0.4378208   , 0.80539453  , 0.744424164 , 0.00106424221, 0.00220319163, -1.0718534  , 0.18        , 23          , 11          , 0.0346410163, 0.0346410163
0.0135778245, 0.00519499741, -9.815676   , 0.00126438623, 0.006836012 , 0.00314170355, 0.437394977 , 0.8063691   , 0.742598653 , 0.0010769564, 0.00227151765, -1.07182193 , 0.19        , 23          , 12          , 0.0346410163, 0
0.0142990481, -0.0065472573, -9.819848   , 0.00125136191, 0.00682880636, 0.00314168353, 0.436993659 , 0.8058174   , 0.74470216  , 0.0007433515, 0.00214834115, -1.07179093 , 0.2         , 23          , 50          , 0           , 0
0.013800378 , -0.008404646, -9.813091   , 0.00125136191, 0.00682880636, 0.00314168353, 0.438085347 , 0.8063644   , 0.7434431   , 0.00075593387, 0.00221660547, -1.07175946 , 0.21        , 23          , 11          , 0.030378    , 0.0303779915
-0.00686878851, -0.00174707547, -9.811297   , 0.00125136191, 0.00682880636, 0.00314168353, 0.438085347 , 0.8063644   , 0.7434431   , 0.0007685183, 0.00228486955, -1.071728   , 0.22        , 23          , 12          , 0.0346698575, 0
0.0194473974, 0.00552917272, -9.812942   , 0.00125136191, 0.00682880636, 0.00314168353, 0.4373999   , 0.805952668 , 0.7431599   , 0.0007811051, 0.002353133 , -1.07169652 , 0.23        , 23          , 50          , 0           , 0
0.0108169466, 0.000355983153, -9.82702351 , 0.00125136191, 0.00682880636, 0.00314168353, 0.437680155 , 0.805951238 , 0.7447046   , 0.0007936939, 0.00242139585, -1.07166481 , 0.24        , 23          , 11          , 0.030378    , 0.0303779915
0.0160283353, 0.0164923556, -9.818724   , 0.00125136191, 0.00682880636, 0.00314168353, 0.437531263 , 0.8069241   , 0.7434414   , 0.0008062849, 0.00248965924, -1.07163334 , 0.25        , 23          , 12          , 0.0346698575, 0
0.00624666363, 0.0235654656, -9.83405    , 0.00125136191, 0.00682880636, 0.00314168353, 0.436994255 , 0.8055394   , 0.744281    , 0.0008188781, 0.00255792122, -1.07160163 , 0.26        , 23          , 50          , 0           , 0
0.0340926126, -0.0126749007, -9.829318   , 0.00125136191, 0.00682880636, 0.00314168353, 0.43809247  , 0.805392146 , 0.7434427   , 0.000831473269, 0.00262618368, -1.07157016 , 0.27        , 23          , 11          , 0.030378    , 0.0303779915
0.04675127  , -0.008965811, -9.810268   , 0.00125136191, 0.00682880636, 0.00314168353, 0.43809247  , 0.805392146 , 0.7434427   , 0.000844070863, 0.0026944452, -1.07153869 , 0.28        , 23          , 12          , 0.0346698575, 0
6.434298E-05, 0.00594273955, -9.824752   , 0.00125136191, 0.00682880636, 0.00314168353, 0.437256515 , 0.80637     , 0.7423175   , 0.00085667  , 0.002762706 , -1.07150722 , 0.29        , 23          , 50          , 0           , 0
0.0124950157, -0.005653696, -9.814878   , 0.00123983226, 0.00680704974, 0.003141677 , 0.4374057   , 0.8058143   , 0.7445632   , 0.0006887716, 0.00249060849, -1.07147622 , 0.3         , 23          , 11          , 0.0269848388, 0.026984822
0.0179689564, -0.0280176289, -9.802419   , 0.00123983226, 0.00680704974, 0.003141677 , 0.437813938 , 0.8058108   , 0.74330163  , 0.000701249344, 0.0025586572, -1.07144475 , 0.31        , 23          , 12          , 0.034755975 , 0
0.00408817269, -0.02313605 , -9.818232   , 0.00123983226, 0.00680704974, 0.003141677 , 0.43726486  , 0.8058149   , 0.7435804   , 0.0007137295, 0.00262670568, -1.07141328 , 0.32        , 23          , 50          , 0           , 0
0.008464579 , -0.005483782, -9.827538   , 0.00123983226, 0.00680704974, 0.003141677 , 0.43726486  , 0.8058149   , 0.7435804   , 0.000726211467, 0.00269475346, -1.07138181 , 0.33        , 23          , 11          , 0.0269848388, 0.026984822
0.0073049916, -0.020006597, -9.819998   , 0.00123983226, 0.00680704974, 0.003141677 , 0.43754068  , 0.80609107  , 0.744423449 , 0.000738695555, 0.00276280078, -1.07135034 , 0.34        , 23          , 12          , 0.034755975 , 0
0.00759801362, -0.00106389821, -9.8130455  , 0.00123983226, 0.00680704974, 0.003141677 , 0.437393    , 0.806507945 , 0.742318034 , 0.0007511818, 0.002830848 , -1.07131886 , 0.35        , 23          , 50          , 0           , 0
0.000103521154, -0.01853145 , -9.82001    , 0.00123983226, 0.00680704974, 0.003141677 , 0.437263161 , 0.8063708   , 0.744282246 , 0.0007636702, 0.002898895 , -1.07128739 , 0.36        , 23          , 11          , 0.0269848388, 0.026984822
-0.001078608, -0.03484144 , -9.815198   , 0.00123983226, 0.00680704974, 0.003141677 , 0.4378098   , 0.8065054   , 0.743582547 , 0.0007761608, 0.002966941 , -1.07125592 , 0.37        , 23          , 12          , 0.034755975 , 0
0.004945813 , -0.0241515618, -9.806496   , 0.00123983226, 0.00680704974, 0.003141677 , 0.4378098   , 0.8065054   , 0.743582547 , 0.00078865356, 0.00303498632, -1.07122445 , 0.38        , 23          , 50          , 0           , 0
0.00300515769, -0.0033810772, -9.797276   , 0.00123983226, 0.00680704974, 0.003141677 , 0.437257    , 0.8063701   , 0.742457867 , 0.000801148359, 0.003103032 , -1.071193   , 0.39        , 23          , 11          , 0.0269848388, 0.026984822
0.0144471712, -0.0195230655, -9.78293    , 0.001212933 , 0.00664170366, 0.003141755 , 0.437680632 , 0.805951238 , 0.7448449   , 0.0005223694, 0.00138542685, -1.07116175 , 0.4         , 23          , 12          , 0.0348985232, 0
-0.00389615819, -0.0122579308, -9.804609   , 0.001212933 , 0.00664170366, 0.003141755 , 0.437529385 , 0.806923866 , 0.742880046 , 0.000534543535, 0.00145182712, -1.07113028 , 0.41        , 23          , 50          , 0           , 0
-0.000736392569, -0.0144567443, -9.818621   , 0.001212933 , 0.00664170366, 0.003141755 , 0.436716735 , 0.8058192   , 0.74413985  , 0.0005467196, 0.001518227 , -1.0710988  , 0.42        , 23          , 11          , 0.0253991932, 0.0253991652
0.0320888832, -0.0197038632, -9.795967   , 0.001212933 , 0.00664170366, 0.003141755 , 0.437678516 , 0.805395    , 0.7430203   , 0.0005588977, 0.0015846272, -1.07106733 , 0.43        , 23          , 12          , 0.0348985232, 0
0.0102703748, -0.004226519, -9.818936   , 0.001212933 , 0.00664170366, 0.003141755 , 0.437678516 , 0.805395    , 0.7430203   , 0.000571077864, 0.001651026 , -1.07103562 , 0.44        , 23          , 50          , 0           , 0
0.0102128489, -0.004407577, -9.796807   , 0.001212933 , 0.00664170366, 0.003141755 , 0.4369815   , 0.806372046 , 0.742316544 , 0.000583260146, 0.00171742484, -1.07100439 , 0.45        , 23          , 11          , 0.0253991932, 0.0253991652
0.000250969082, -0.00433752872, -9.785551   , 0.001212933 , 0.00664170366, 0.003141755 , 0.436992139 , 0.805956244 , 0.744561851 , 0.0005954446, 0.00178382348, -1.07097292 , 0.46        , 23          , 12          , 0.0348985232, 0
0.00259183533, -0.00539888255, -9.826202   , 0.001212933 , 0.00664170366, 0.003141755 , 0.4375374   , 0.805951655 , 0.743160367 , 0.000607631053, 0.00185022166, -1.07094145 , 0.47        , 23          , 50          , 0           , 0
0.0131005179, 0.0008305162, -9.834237   , 0.001212933 , 0.00664170366, 0.003141755 , 0.437126875 , 0.805815935 , 0.743439555 , 0.0006198196, 0.00191661925, -1.07091    , 0.48        , 23          , 11          , 0.0253991932, 0.0253991652
0.0219002254, -0.0111961365, -9.819863   , 0.001212933 , 0.00664170366, 0.003141755 , 0.437126875 , 0.805815935 , 0.743439555 , 0.000632010342, 0.00198301673, -1.07087851 , 0.49        , 23          , 12          , 0.0348985232, 0
0.00316760456, -0.0231767111, -9.81146049 , 0.00121759111, 0.006643972 , 0.00314176362, 0.437406778 , 0.8055364   , 0.7442824   , 0.0006718911, 0.002062881 , -1.070847   , 0.5         , 23          , 50          , 0           , 0
0.0279944986, 0.00185888819, -9.823786   , 0.00121759111, 0.006643972 , 0.00314176362, 0.437118    , 0.80651     , 0.7423171   , 0.000684133 , 0.00212929933, -1.07081556 , 0.51        , 23          , 11          , 0.0154041136, 0.01540408
0.00353294634, -0.00314827263, -9.826631   , 0.00121759111, 0.006643972 , 0.00314176362, 0.4368532   , 0.8059571   , 0.7441404   , 0.0006963769, 0.00219571753, -1.07078409 , 0.52        , 23          , 12          , 0.035096392 , 0
0.00197799644, -0.0149127422, -9.823584   , 0.00121759111, 0.006643972 , 0.00314176362, 0.438222528 , 0.806085348 , 0.742741764 , 0.000708623 , 0.002262135 , -1.07075286 , 0.53        , 23          , 50          , 0           , 0
0.0149452565, -0.0198128037, -9.803708   , 0.00121759111, 0.006643972 , 0.00314176362, 0.438222528 , 0.806085348 , 0.742741764 , 0.0007208712, 0.00232855231, -1.07072115 , 0.54        , 23          , 11          , 0.0154041136, 0.01540408
0.0129120089, 0.01882789  , -9.821424   , 0.00121759111, 0.006643972 , 0.00314176362, 0.4372605   , 0.805953443 , 0.742598057 , 0.0007331216, 0.00239496934, -1.07068992 , 0.55        , 23          , 12          , 0.035096392 , 0
0.021231005 , 0.00542943738, -9.804356   , 0.00121759111, 0.006643972 , 0.00314176362, 0.437542737 , 0.805813253 , 0.7444234   , 0.0007453738, 0.00246138545, -1.07065821 , 0.56        , 23          , 50          , 0           , 0
0.02819533  , -0.009663835, -9.798597   , 0.00121759111, 0.006643972 , 0.00314176362, 0.437531471 , 0.806507051 , 0.7425992   , 0.0007576282, 0.00252780155, -1.07062674 , 0.57        , 23          , 11          , 0.0154041136, 0.01540408
0.00390514848, -0.0292898621, -9.784866   , 0.00121759111, 0.006643972 , 0.00314176362, 0.4369918   , 0.8056782   , 0.743860066 , 0.000769884558, 0.002594217 , -1.07059526 , 0.58        , 23          , 12          , 0.035096392 , 0
0.000198260415, -0.0100811739, -9.802317   , 0.00121759111, 0.006643972 , 0.00314176362, 0.4375364   , 0.8060906   , 0.743160367 , 0.0007821429, 0.00266063213, -1.070564   , 0.59        , 23          , 50          , 0           , 0
0.0243672915, 0.00315671973, -9.809333   , 0.00123354245, 0.0064738337, 0.00314193312, 0.4375364   , 0.8060906   , 0.743160367 , 0.0008605472, 0.00201774249, -1.07053232 , 0.6         , 23          , 11          , 0.0151801091, 0.0151800569
-0.00436113635, -0.0144383293, -9.813665   , 0.00123354245, 0.0064738337, 0.00314193312, 0.436707556 , 0.806096256 , 0.742034853 , 0.0008729472, 0.00208245357, -1.07050085 , 0.61        , 23          , 12          , 0.03534823  , 0
0.00587459747, -0.0240850337, -9.816427   , 0.00123354245, 0.0064738337, 0.00314193312, 0.436852664 , 0.8060961   , 0.744280756 , 0.0008853492, 0.00214716443, -1.07046938 , 0.62        , 23          , 50          , 0           , 0
0.0163681358, -0.0148999011, -9.798689   , 0.00123354245, 0.0064738337, 0.00314193312, 0.43781054  , 0.8059494   , 0.7425999   , 0.0008977532, 0.00221187482, -1.07043791 , 0.63        , 23          , 11          , 0.0151801091, 0.0151800569
0.0176632013, 0.007772354 , -9.807056   , 0.00123354245, 0.0064738337, 0.00314193312, 0.437266469 , 0.8053981   , 0.7431592   , 0.000910159259, 0.00227658451, -1.07040644 , 0.64        , 23          , 12          , 0.03534823  , 0
0.01167306  , -0.00109339319, -9.817548   , 0.00123354245, 0.0064738337, 0.00314193312, 0.437266469 , 0.8053981   , 0.7431592   , 0.0009225674, 0.0023412935, -1.07037473 , 0.65        , 23          , 50          , 0           , 0
0.015953552 , 0.0123954611, -9.815601   , 0.00123354245, 0.0064738337, 0.00314193312, 0.437543333 , 0.805535257 , 0.7440022   , 0.000934977259, 0.00240600342, -1.07034326 , 0.66        , 23          , 11          , 0.0151801091, 0.0151800569
0.007860281 , 0.0117751863, -9.834154   , 0.00123354245, 0.0064738337, 0.00314193312, 0.437394559 , 0.8062301   , 0.7421776   , 0.0009473895, 0.00247071171, -1.07031178 , 0.67        , 23          , 12          , 0.03534823  , 0
0.0112749971, 0.005517967 , -9.795357   , 0.00123354245, 0.0064738337, 0.00314193312, 0.4374018   , 0.805952847 , 0.743721247 , 0.000959803758, 0.00253542024, -1.07028031 , 0.68        , 23          , 50          , 0           , 0
0.009157779 , 0.009428541 , -9.826493   , 0.00123354245, 0.0064738337, 0.00314193312, 0.4376735   , 0.805950463 , 0.742739856 , 0.00097222  , 0.0026001276, -1.07024884 , 0.69        , 23          , 11          , 0.0151801091, 0.0151800569
0.0122246463, -0.02409602 , -9.827697   , 0.0012132246, 0.006456269 , 0.00314189726, 0.4376735   , 0.805950463 , 0.742739856 , 0.0009220944, 0.00261082686, -1.07021761 , 0.7         , 23          , 12          , 0.0356524847, 0
0.00316611  , 0.00441949069, -9.810752   , 0.0012132246, 0.006456269 , 0.00314189726, 0.4371231   , 0.805815458 , 0.742316842 , 0.0009343099, 0.00267536  , -1.07018614 , 0.71        , 23          , 50          , 0           , 0
0.0116617894, -0.001986986, -9.818912   , 0.0012132246, 0.006456269 , 0.00314189726, 0.436992228 , 0.805817246 , 0.7442811   , 0.0009465273, 0.002739893 , -1.07015443 , 0.72        , 23          , 11          , 0.0132604735, 0.0132604241
0.0125987586, -0.0256340876, -9.806481   , 0.0012132246, 0.006456269 , 0.00314189726, 0.437119961 , 0.806371152 , 0.7425977   , 0.0009587466, 0.00280442624, -1.0701232  , 0.73        , 23          , 12          , 0.0356524847, 0
-0.0102960989, -0.018839838, -9.816889   , 0.0012132246, 0.006456269 , 0.00314189726, 0.43685028  , 0.8060958   , 0.7435791   , 0.0009709682, 0.002868958 , -1.07009172 , 0.74        , 23          , 50          , 0           , 0
-0.0180006716, 0.006219605 , -9.822556   , 0.0012132246, 0.006456269 , 0.00314189726, 0.437675476 , 0.8058117   , 0.7430205   , 0.0009831915, 0.00293349056, -1.07006025 , 0.75        , 23          , 11          , 0.0132604735, 0.0132604241
0.000417442061, 0.00305135548, -9.804001   , 0.0012132246, 0.006456269 , 0.00314189726, 0.437675476 , 0.8058117   , 0.7430205   , 0.0009954171, 0.002998022 , -1.070029   , 0.76        , 23          , 12          , 0.0356524847, 0
0.007851208 , -0.011563696, -9.802303   , 0.0012132246, 0.006456269 , 0.00314189726, 0.43712014  , 0.805954158 , 0.741755545 , 0.00100764458, 0.00306255347, -1.06999755 , 0.77        , 23          , 50          , 0           , 0
0.02564166  , -0.003124237, -9.818419   , 0.0012132246, 0.006456269 , 0.00314189726, 0.436853766 , 0.805818141 , 0.743999958 , 0.00101987424, 0.003127084 , -1.06996608 , 0.78        , 23          , 11          , 0.0132604735, 0.0132604241
0.0238604024, -0.003017107, -9.827911   , 0.0012132246, 0.006456269 , 0.00314189726, 0.4378075   , 0.8063661   , 0.7426001   , 0.00103210588, 0.00319161476, -1.06993461 , 0.79        , 23          , 12          , 0.0356524847, 0
0.03316735  , -0.0127303377, -9.820741   , 0.00120403431, 0.006446575 , 0.0031418805, 0.437125    , 0.8058157   , 0.7428782   , 0.00102109485, 0.00323166023, -1.06990314 , 0.8         , 23          , 50          , 0           , 0
0.008113473 , 0.00556595623, -9.794916   , 0.00120403431, 0.006446575 , 0.0031418805, 0.437125    , 0.8058157   , 0.7428782   , 0.00103323767, 0.00329609448, -1.06987166 , 0.81        , 23          , 11          , 0.01342452  , 0.0134244505
-0.0005336483, -0.00137594342, -9.813982   , 0.00120403431, 0.006446575 , 0.0031418805, 0.4375438   , 0.8055353   , 0.7441426   , 0.00104538293, 0.00336052757, -1.06984019 , 0.82        , 23          , 12          , 0.0360074267, 0
0.008405879 , -0.009959109, -9.83345    , 0.00120403431, 0.006446575 , 0.0031418805, 0.436978042 , 0.806649745 , 0.7418957   , 0.00105753  , 0.00342496042, -1.069809   , 0.83        , 23          , 50          , 0           , 0
0.0174677335, -0.00356931053, -9.803097   , 0.00120403431, 0.006446575 , 0.0031418805, 0.4368568   , 0.805401444 , 0.7439998   , 0.00106967869, 0.00348939234, -1.06977749 , 0.84        , 23          , 11          , 0.01342452  , 0.0134244505
0.0382031128, -0.00658600545, -9.807567   , 0.00120403431, 0.006446575 , 0.0031418805, 0.437809467 , 0.8062273   , 0.7428807   , 0.00108182989, 0.0035538245, -1.069746   , 0.85        , 23          , 12          , 0.0360074267, 0
0.020265948 , -0.000329006463, -9.817511   , 0.00120403431, 0.006446575 , 0.0031418805, 0.437809467 , 0.8062273   , 0.7428807   , 0.00109398307, 0.00361825572, -1.06971478 , 0.86        , 23          , 50          , 0           , 0
0.014714255 , -0.007955993, -9.81444    , 0.00120403431, 0.006446575 , 0.0031418805, 0.437258124 , 0.8059532   , 0.7418964   , 0.00110613846, 0.003682687 , -1.06968331 , 0.87        , 23          , 11          , 0.01342452  , 0.0134244505
-0.01163501 , 0.0109773837, -9.808488   , 0.00120403431, 0.006446575 , 0.0031418805, 0.437269747 , 0.805537462 , 0.7444223   , 0.00111829548, 0.00374711864, -1.06965184 , 0.88        , 23          , 12          , 0.0360074267, 0
0.0007349709, -0.008962179, -9.829404   , 0.00120403431, 0.006446575 , 0.0031418805, 0.4375356   , 0.8058124   , 0.7423183   , 0.00113045471, 0.00381154823, -1.06962037 , 0.89        , 23          , 50          , 0           , 0
0.0216111932, -0.026693821, -9.805554   , 0.00120090437, 0.00639236765, 0.00314192125, 0.4369878   , 0.806094766 , 0.743579566 , 0.0011355743, 0.00375570543, -1.0695889  , 0.9         , 23          , 11          , 0.013700177 , 0.0137000876
-0.00271147862, -0.022253653, -9.801989   , 0.00120090437, 0.00639236765, 0.00314192125, 0.4376765   , 0.8056728   , 0.7430204   , 0.00114770234, 0.00381959323, -1.06955743 , 0.91        , 23          , 12          , 0.0364111774, 0
0.0105900159, -0.0136590581, -9.828056   , 0.00120090437, 0.00639236765, 0.00314192125, 0.4376765   , 0.8056728   , 0.7430204   , 0.00115983293, 0.00388348149, -1.069526   , 0.92        , 23          , 50          , 0           , 0
-0.007475116, -0.01209539 , -9.817268   , 0.00120090437, 0.00639236765, 0.00314192125, 0.437116563 , 0.806509852 , 0.7418961   , 0.00117196515, 0.003947368 , -1.06949449 , 0.93        , 23          , 11          , 0.013700177 , 0.0137000876
-0.0114537813, -0.00446856 , -9.801403   , 0.00120090437, 0.00639236765, 0.00314192125, 0.436991662 , 0.8059562   , 0.744421542 , 0.00118409935, 0.00401125476, -1.06946325 , 0.94        , 23          , 12          , 0.0364111774, 0
0.0205920432, -0.007595947, -9.814867   , 0.00120090437, 0.00639236765, 0.00314192125, 0.437534034 , 0.8060903   , 0.7424587   , 0.00119623553, 0.00407514069, -1.06943178 , 0.95        , 23          , 50          , 0           , 0
0.0222705826, -0.0144622549, -9.8086     , 0.00120090437, 0.00639236765, 0.00314192125, 0.437127471 , 0.805537939 , 0.743018448 , 0.00120837393, 0.004139026 , -1.06940031 , 0.96        , 23          , 11          , 0.013700177 , 0.0137000876
0.00741264224, -0.0115156677, -9.807272   , 0.00120090437, 0.00639236765, 0.00314192125, 0.437127471 , 0.805537939 , 0.743018448 , 0.001220514 , 0.00420291256, -1.06936884 , 0.97        , 23          , 12          , 0.0364111774, 0
0.02707249  , -0.0236419383, -9.802345   , 0.00120090437, 0.00639236765, 0.00314192125, 0.437543333 , 0.805535257 , 0.7440022   , 0.0012326563, 0.00426679756, -1.06933737 , 0.98        , 23          , 50          , 0           , 0
0.0240780227, -0.0140579287, -9.806332   , 0.00120090437, 0.00639236765, 0.00314192125, 0.4372576   , 0.8060922   , 0.74203676  , 0.00124480063, 0.004330682 , -1.06930614 , 0.99        , 23          , 11          , 0.013700177 , 0.0137000876
0.00161913957, -0.004745502, -9.79368    , 0.00121294567, 0.006273819 , 0.00314207585, 0.436989844 , 0.805816948 , 0.743579447 , 0.00128125621, 0.004152976 , -1.06927466 , 1           , 23          , 12          , 0.0368617326, 0
0.0123025952, -0.0161276422, -9.806394   , 0.00121294567, 0.006273819 , 0.00314207585, 0.437674433 , 0.8059506   , 0.743020535 , 0.00129351765, 0.004215673 , -1.06924319 , 1.01        , 23          , 50          , 0           , 0
0.0253211949, 0.006734771 , -9.806135   , 0.00121294567, 0.006273819 , 0.00314207585, 0.437674433 , 0.8059506   , 0.743020535 , 0.00130578084, 0.00427837  , -1.06921148 , 1.02        , 23          , 11          , 0.0140694352, 0.014069329
0.03513304  , -0.000672431663, -9.80526352 , 0.00121294567, 0.006273819 , 0.00314207585, 0.437257051 , 0.806231141 , 0.7421771   , 0.00131804636, 0.00434106775, -1.06918    , 1.03        , 23          , 12          , 0.0368617326, 0
0.0188379027, -0.004400054, -9.814843   , 0.00121294567, 0.006273819 , 0.00314207585, 0.437545836 , 0.805257559 , 0.7441425   , 0.00133031385, 0.00440376438, -1.0691483  , 1.04        , 23          , 50          , 0           , 0
0.02959614  , -0.007394748, -9.802184   , 0.00121294567, 0.006273819 , 0.00314207585, 0.437397063 , 0.8059523   , 0.742317855 , 0.00134258287, 0.00446646055, -1.06911683 , 1.05        , 23          , 11          , 0.0140694352, 0.014069329
0.0187412836, -0.0094238  , -9.809018   , 0.00121294567, 0.006273819 , 0.00314207585, 0.436852247 , 0.80595696  , 0.7438597   , 0.00135485432, 0.004529156 , -1.06908536 , 1.06        , 23          , 12          , 0.0368617326, 0
0.0187057965, -0.03928168 , -9.809748   , 0.00121294567, 0.006273819 , 0.00314207585, 0.437402964 , 0.805536    , 0.7431597   , 0.00136712752, 0.0045918515, -1.06905389 , 1.07        , 23          , 50          , 0           , 0
0.0206780955, -0.00260546431, -9.816627   , 0.00121294567, 0.006273819 , 0.00314207585, 0.437402964 , 0.805536    , 0.7431597   , 0.0013794027, 0.004654547 , -1.06902242 , 1.08        , 23          , 11          , 0.0140694352, 0.014069329
0.00225822348, 0.00270251557, -9.820257   , 0.00121294567, 0.006273819 , 0.00314207585, 0.436981082 , 0.806233048 , 0.741895556 , 0.00139168021, 0.004717242 , -1.068991   , 1.09        , 23          , 12          , 0.0368617326, 0
0.00124268141, -0.003214823, -9.8139925  , 0.00117229146, 0.006164028 , 0.003142052 , 0.436993718 , 0.8056784   , 0.7444214   , 0.00132601941, 0.00457013259, -1.06895947 , 1.1         , 23          , 50          , 0           , 0
0.0161298513, -0.004782222, -9.818018   , 0.00117229146, 0.006164028 , 0.003142052 , 0.437532485 , 0.8063681   , 0.7425991   , 0.0013378876, 0.004631732 , -1.068928   , 1.11        , 23          , 11          , 0.0137784127, 0.0137783075
-0.00138201285, 0.00095593  , -9.820738   , 0.00117229146, 0.006164028 , 0.003142052 , 0.4368494   , 0.805956662 , 0.7430177   , 0.00134975766, 0.00469332933, -1.06889653 , 1.12        , 23          , 12          , 0.0373570248, 0
0.00389179634, -0.00473437831, -9.799543   , 0.00117229146, 0.006164028 , 0.003142052 , 0.4368494   , 0.805956662 , 0.7430177   , 0.00136162934, 0.00475492654, -1.06886482 , 1.13        , 23          , 50          , 0           , 0
0.02494908  , 0.0121406317, -9.802472   , 0.00117229146, 0.006164028 , 0.003142052 , 0.437266767 , 0.80581516  , 0.744141757 , 0.00137350347, 0.00481652468, -1.06883335 , 1.14        , 23          , 11          , 0.0137784127, 0.0137783075
0.0106720775, -0.007823037, -9.822583   , 0.00117229146, 0.006164028 , 0.003142052 , 0.437118053 , 0.806371    , 0.742036343 , 0.00138537877, 0.004878122 , -1.06880164 , 1.15        , 23          , 12          , 0.0373570248, 0
-0.0006052628, -0.00589191541, -9.814927   , 0.00117229146, 0.006164028 , 0.003142052 , 0.436991334 , 0.8056781   , 0.7437197   , 0.00139725639, 0.004939718 , -1.06877017 , 1.16        , 23          , 50          , 0           , 0
-0.000227859709, -0.009135865, -9.806375   , 0.00117229146, 0.006164028 , 0.003142052 , 0.4379505   , 0.8058097   , 0.7430214   , 0.00140913611, 0.00500131445, -1.0687387  , 1.17        , 23          , 11          , 0.0137784127, 0.0137783075
0.0194700211, -0.0177099463, -9.793283   , 0.00117229146, 0.006164028 , 0.003142052 , 0.4379505   , 0.8058097   , 0.7430214   , 0.001421018 , 0.00506290933, -1.06870723 , 1.18        , 23          , 12          , 0.0373570248, 0
0.02385312  , -0.000465668767, -9.808013   , 0.00117229146, 0.006164028 , 0.003142052 , 0.4369876   , 0.805538654 , 0.742316246 , 0.00143290148, 0.00512450654, -1.06867576 , 1.19        , 23          , 50          , 0           , 0
0.0125199007, -0.00385913043, -9.813055   , 0.00108976383, 0.00600317866, 0.00314192637, 0.4369952   , 0.805539548 , 0.7445617   , 0.00129257585, 0.00489029847, -1.06864476 , 1.2         , 23          , 11          , 0.0141625749, 0.01416246
-0.009699637, -0.007664452, -9.801426   , 0.00108976383, 0.00600317866, 0.00314192637, 0.437396526 , 0.8060913   , 0.7424582   , 0.00130362867, 0.004950289 , -1.06861329 , 1.21        , 23          , 12          , 0.03789492  , 0
0.02622553  , -0.0195894018, -9.798245   , 0.00108976383, 0.00600317866, 0.00314192637, 0.436855316 , 0.805540264 , 0.7438595   , 0.00131468347, 0.00501027936, -1.06858182 , 1.22        , 23          , 50          , 0           , 0
-0.00339622912, -0.03542315 , -9.794886   , 0.00108976383, 0.00600317866, 0.00314192637, 0.437814474 , 0.8056719   , 0.7431612   , 0.00132574  , 0.005070271 , -1.06855035 , 1.23        , 23          , 11          , 0.0141625749, 0.01416246
-0.00585759152, 0.004585635 , -9.813042   , 0.00108976383, 0.00600317866, 0.00314192637, 0.437814474 , 0.8056719   , 0.7431612   , 0.00133679865, 0.00513026072, -1.06851864 , 1.24        , 23          , 12          , 0.03789492  , 0
0.011102071 , -0.008327089, -9.817166   , 0.00108976383, 0.00600317866, 0.00314192637, 0.4369806   , 0.806233    , 0.7417551   , 0.00134785881, 0.00519025  , -1.06848717 , 1.25        , 23          , 50          , 0           , 0
0.00521379849, -0.033746697, -9.795743   , 0.00108976383, 0.00600317866, 0.00314192637, 0.436996281 , 0.8052617   , 0.7442809   , 0.00135892117, 0.00525023928, -1.06845546 , 1.26        , 23          , 11          , 0.0141625749, 0.01416246
0.0160823055, -0.007077168, -9.813974   , 0.00108976383, 0.00600317866, 0.00314192637, 0.437669516 , 0.80636704  , 0.7424593   , 0.001369985 , 0.005310228 , -1.068424   , 1.27        , 23          , 12          , 0.03789492  , 0
0.0115564838, -0.006179951, -9.804046   , 0.00108976383, 0.00600317866, 0.00314192637, 0.43699044  , 0.805539    , 0.7431583   , 0.00138105068, 0.005370216 , -1.06839252 , 1.28        , 23          , 50          , 0           , 0
0.008248127 , 0.0141418735, -9.792579   , 0.00108976383, 0.00600317866, 0.00314192637, 0.43699044  , 0.805539    , 0.7431583   , 0.00139211852, 0.00543020433, -1.068361   , 1.29        , 23          , 11          , 0.0141625749, 0.01416246
-0.00134820631, 0.00363669358, -9.81664848 , 0.0008622806, 0.00563414162, 0.0031414507, 0.437130272 , 0.8056773   , 0.7441412   , 0.0009937331, 0.00482788729, -1.06833172 , 1.3         , 23          , 12          , 0.03847326  , 0
0.0130573148, 0.002410762 , -9.806219   , 0.0008622806, 0.00563414162, 0.0031414507, 0.436982036 , 0.806233168 , 0.7421762   , 0.00100250856, 0.00488419738, -1.06830025 , 1.31        , 23          , 50          , 0           , 0
0.00394931948, -0.000262744725, -9.793179   , 0.0008622806, 0.00563414162, 0.0031414507, 0.4371283   , 0.805816054 , 0.7438606   , 0.00101128581, 0.004940507 , -1.068269   , 1.32        , 23          , 11          , 0.0141077023, 0.0141075887
-0.0260680318, -0.0150551107, -9.80562    , 0.0008622806, 0.00563414162, 0.0031414507, 0.437808365 , 0.806505263 , 0.7431615   , 0.00102006493, 0.004996817 , -1.06823754 , 1.33        , 23          , 12          , 0.03847326  , 0
0.00632540556, 0.003077315 , -9.818885   , 0.0008622806, 0.00563414162, 0.0031414507, 0.437808365 , 0.806505263 , 0.7431615   , 0.00102884555, 0.00505312625, -1.06820607 , 1.34        , 23          , 50          , 0           , 0
0.0269209631, -0.007673444, -9.81800652 , 0.0008622806, 0.00563414162, 0.0031414507, 0.436979532 , 0.8065109   , 0.7420359   , 0.00103762816, 0.00510943541, -1.0681746  , 1.35        , 23          , 11          , 0.0141077023, 0.0141075887
-0.006383734, -0.000790672435, -9.818514   , 0.0008622806, 0.00563414162, 0.0031414507, 0.437406063 , 0.8059533   , 0.7449843   , 0.00104641286, 0.00516574364, -1.06814313 , 1.36        , 23          , 12          , 0.03847326  , 0
-0.009225116, 0.0169982016, -9.830103   , 0.0008622806, 0.00563414162, 0.0031414507, 0.43739444  , 0.8065081   , 0.7427391   , 0.001055199 , 0.005222052 , -1.06811166 , 1.37        , 23          , 50          , 0           , 0
0.0102703739, -0.004226513, -9.818937   , 0.0008622806, 0.00563414162, 0.0031414507, 0.436852247 , 0.80595696  , 0.7438597   , 0.00106398738, 0.00527836  , -1.06808019 , 1.38        , 23          , 11          , 0.0141077023, 0.0141075887
0.02359743  , -0.01671653 , -9.812231   , 0.0008622806, 0.00563414162, 0.0031414507, 0.437814951 , 0.80567193  , 0.7433016   , 0.00107277744, 0.005334669 , -1.06804848 , 1.39        , 23          , 12          , 0.03847326  , 0
0.0192661341, -0.00276437588, -9.7945     , 0.000888877839, 0.00551146  , 0.00314170285, 0.437814951 , 0.80567193  , 0.7433016   , 0.00112828659, 0.0051739905, -1.06801677 , 1.4         , 23          , 50          , 0           , 0
0.00221783575, 0.003433507 , -9.799022   , 0.000888877839, 0.00551146  , 0.00314170285, 0.437119126 , 0.8060931   , 0.7417556   , 0.00113733986, 0.00522906752, -1.067985   , 1.41        , 23          , 11          , 0.0138020068, 0.0138018969
0.008064134 , -0.0269098729, -9.807413   , 0.000888877839, 0.00551146  , 0.00314170285, 0.436857164 , 0.80567956  , 0.7447016   , 0.00114639464, 0.00528414641, -1.06795359 , 1.42        , 23          , 12          , 0.0390898921, 0
0.00650956854, -0.0145046785, -9.827176   , 0.000888877839, 0.00551146  , 0.00314170285, 0.4378114   , 0.806088567 , 0.7431613   , 0.00115545059, 0.005339225 , -1.06792188 , 1.43        , 23          , 50          , 0           , 0
0.0560420528, 0.00672568567, -9.810991   , 0.000888877839, 0.00551146  , 0.00314170285, 0.4372613   , 0.8062316   , 0.743440151 , 0.00116450852, 0.005394304 , -1.06789041 , 1.44        , 23          , 11          , 0.0138020068, 0.0138018969
0.00431697862, -0.008256985, -9.812221   , 0.000888877839, 0.00551146  , 0.00314170285, 0.4372613   , 0.8062316   , 0.743440151 , 0.00117356807, 0.00544938166, -1.06785893 , 1.45        , 23          , 12          , 0.0390898921, 0
-0.0104391761, -0.001128519, -9.824404   , 0.000888877839, 0.00551146  , 0.00314170285, 0.4374053   , 0.805675268 , 0.7441422   , 0.00118262949, 0.005504459 , -1.06782746 , 1.46        , 23          , 50          , 0           , 0
-0.003996414, -0.02029652 , -9.817331   , 0.000888877839, 0.00551146  , 0.00314170285, 0.437115    , 0.80678767  , 0.7420365   , 0.00119169219, 0.00555953663, -1.067796   , 1.47        , 23          , 11          , 0.0138020068, 0.0138018969
0.0269052312, -0.006864848, -9.806254   , 0.000888877839, 0.00551146  , 0.00314170285, 0.4369933   , 0.8055393   , 0.7440003   , 0.00120075734, 0.005614613 , -1.06776452 , 1.48        , 23          , 12          , 0.0390898921, 0
0.0392851867, -0.0203371439, -9.788268   , 0.000888877839, 0.00551146  , 0.00314170285, 0.437949    , 0.8059485   , 0.74288106  , 0.00120982411, 0.00566968974, -1.067733   , 1.49        , 23          , 50          , 0           , 0
0.0142142866, -0.00853028148, -9.798637   , 0.000934535637, 0.005424651 , 0.00314200623, 0.437949    , 0.8059485   , 0.74288106  , 0.00129907986, 0.00557172857, -1.06770062 , 1.5         , 23          , 11          , 0.0140597085, 0.0140595948
0.00513591245, 0.0143450554, -9.811106   , 0.000934535637, 0.005424651 , 0.00314200623, 0.436984062 , 0.80595535  , 0.7421761   , 0.00130860158, 0.00562593341, -1.06766915 , 1.51        , 23          , 12          , 0.03974269  , 0
0.0240774676, 0.0118250046, -9.817383   , 0.000934535637, 0.005424651 , 0.00314200623, 0.4372682   , 0.805815339 , 0.744562745 , 0.00131812529, 0.00568013825, -1.06763768 , 1.52        , 23          , 50          , 0           , 0
0.0148928128, 0.00419056974, -9.806195   , 0.000934535637, 0.005424651 , 0.00314200623, 0.437670946 , 0.8063672   , 0.7428803   , 0.00132765051, 0.00573434262, -1.06760621 , 1.53        , 23          , 11          , 0.0140597085, 0.0140595948
0.0006499719, -0.008371599, -9.791008   , 0.000934535637, 0.005424651 , 0.00314200623, 0.436850816 , 0.805956841 , 0.743438661 , 0.00133717782, 0.00578854745, -1.06757474 , 1.54        , 23          , 12          , 0.03974269  , 0
0.0156047642, -0.008868044, -9.815349   , 0.000934535637, 0.005424651 , 0.00314200623, 0.437951446 , 0.8058098   , 0.7433021   , 0.00134670653, 0.00584275136, -1.067543   , 1.55        , 23          , 50          , 0           , 0
-0.00231443951, -0.00212545134, -9.829351   , 0.000934535637, 0.005424651 , 0.00314200623, 0.437951446 , 0.8058098   , 0.7433021   , 0.00135623687, 0.00589695526, -1.06751156 , 1.56        , 23          , 11          , 0.0140597085, 0.0140595948
0.02737279  , -0.00296010077, -9.786796   , 0.000934535637, 0.005424651 , 0.00314200623, 0.437255561 , 0.80636996  , 0.7420368   , 0.00136576872, 0.00595116057, -1.06748009 , 1.57        , 23          , 12          , 0.03974269  , 0
0.0001423806, -0.015405748, -9.815012   , 0.000934535637, 0.005424651 , 0.00314200623, 0.436714679 , 0.806097031 , 0.744139969 , 0.00137530267, 0.00600536354, -1.06744838 , 1.58        , 23          , 50          , 0           , 0
-0.001994445, -0.006837258, -9.807262   , 0.000934535637, 0.005424651 , 0.00314200623, 0.437945962 , 0.8063652   , 0.742881238 , 0.00138483813, 0.00605956651, -1.06741691 , 1.59        , 23          , 11          , 0.0140597085, 0.0140595948
0.0289171729, 0.004480535 , -9.814273   , 0.0008885255, 0.004999167 , 0.00314229843, 0.4371244   , 0.805954635 , 0.7430186   , 0.00131172733, 0.00536120543, -1.06738591 , 1.6         , 23          , 12          , 0.0404295474, 0
0.022310026 , -0.009189423, -9.789581   , 0.0008885255, 0.004999167 , 0.00314229843, 0.4371244   , 0.805954635 , 0.7430186   , 0.00132078223, 0.00541115552, -1.0673542  , 1.61        , 23          , 50          , 0           , 0
0.0132521614, -0.0121342  , -9.798675   , 0.0008885255, 0.004999167 , 0.00314229843, 0.4372682   , 0.805815339 , 0.744562745 , 0.001329839 , 0.005461105 , -1.06732249 , 1.62        , 23          , 11          , 0.0141867651, 0.0141866533
-0.00265489239, -0.0203593168, -9.812359   , 0.0008885255, 0.004999167 , 0.00314229843, 0.4372605   , 0.805953443 , 0.742598057 , 0.00133889739, 0.00551105523, -1.067291   , 1.63        , 23          , 12          , 0.0404295474, 0
0.013692487 , -0.0143219708, -9.80863    , 0.0008885255, 0.004999167 , 0.00314229843, 0.4367153   , 0.805819035 , 0.7437188   , 0.00134795683, 0.005561006 , -1.06725955 , 1.64        , 23          , 50          , 0           , 0
0.009940604 , -0.0194233619, -9.786108   , 0.0008885255, 0.004999167 , 0.00314229843, 0.437812537 , 0.80581063  , 0.7428806   , 0.00135701837, 0.005610953 , -1.06722808 , 1.65        , 23          , 11          , 0.0141867651, 0.0141866533
0.0163880941, -0.0148370862, -9.806368   , 0.0008885255, 0.004999167 , 0.00314229843, 0.437812537 , 0.80581063  , 0.7428806   , 0.00136608141, 0.005660904 , -1.06719661 , 1.66        , 23          , 12          , 0.0404295474, 0
0.009657474 , -0.0111630745, -9.79958248 , 0.0008885255, 0.004999167 , 0.00314229843, 0.437122047 , 0.805954337 , 0.7423169   , 0.00137514563, 0.0057108514, -1.0671649  , 1.67        , 23          , 50          , 0           , 0
-0.006587773, -0.0125883687, -9.814108   , 0.0008885255, 0.004999167 , 0.00314229843, 0.437271625 , 0.805537641 , 0.7449837   , 0.00138421135, 0.005760799 , -1.06713343 , 1.68        , 23          , 11          , 0.0141867651, 0.0141866533
0.00333289942, -0.0157915242, -9.829457   , 0.0008885255, 0.004999167 , 0.00314229843, 0.437668443 , 0.806645    , 0.7427401   , 0.00139327929, 0.005810747 , -1.067102   , 1.69        , 23          , 12          , 0.0404295474, 0
-0.00649291463, -0.00542489439, -9.805008   , 0.0008928841, 0.004892189 , 0.00314244861, 0.436714262 , 0.8059579   , 0.743718863 , 0.00140978815, 0.005669707 , -1.06707025 , 1.7         , 23          , 50          , 0           , 0
0.00266168453, 0.001256831 , -9.810332   , 0.0008928841, 0.004892189 , 0.00314244861, 0.437674433 , 0.8059506   , 0.743020535 , 0.00141889683, 0.00571858464, -1.06703877 , 1.71        , 23          , 11          , 0.0140968179, 0.0140967108
0.0031163   , -0.02290913 , -9.788876   , 0.0008928841, 0.004892189 , 0.00314244861, 0.437674433 , 0.8059506   , 0.743020535 , 0.00142800668, 0.00576746138, -1.0670073  , 1.72        , 23          , 12          , 0.0411484279, 0
0.0153075438, 0.00363847427, -9.794909   , 0.0008928841, 0.004892189 , 0.00314244861, 0.4369806   , 0.806233    , 0.7417551   , 0.00143711793, 0.00581633765, -1.06697583 , 1.73        , 23          , 50          , 0           , 0
0.004460672 , -8.167513E-05, -9.816211   , 0.0008928841, 0.004892189 , 0.00314244861, 0.436991662 , 0.8059562   , 0.744421542 , 0.0014462308, 0.00586521626, -1.06694412 , 1.74        , 23          , 11          , 0.0140968179, 0.0140967108
0.009598424 , -0.01606856 , -9.80821    , 0.0008928841, 0.004892189 , 0.00314244861, 0.438082516 , 0.806364059 , 0.742601037 , 0.00145534577, 0.005914091 , -1.06691241 , 1.75        , 23          , 12          , 0.0411484279, 0
-0.008429141, -0.0100960881, -9.783379   , 0.0008928841, 0.004892189 , 0.00314244861, 0.4372624   , 0.8059537   , 0.7431594   , 0.00146446156, 0.005962967 , -1.066881   , 1.76        , 23          , 50          , 0           , 0
0.008392379 , -0.007856319, -9.81401    , 0.0008928841, 0.004892189 , 0.00314244861, 0.4372624   , 0.8059537   , 0.7431594   , 0.00147357886, 0.00601184275, -1.06684947 , 1.77        , 23          , 11          , 0.0140968179, 0.0140967108
0.009965528 , 0.00611070171, -9.80981    , 0.0008928841, 0.004892189 , 0.00314244861, 0.437404275 , 0.805814147 , 0.744142234 , 0.00148269814, 0.006060718 , -1.066818   , 1.78        , 23          , 12          , 0.0411484279, 0
0.0148053532, -0.00252056681, -9.815291   , 0.0008928841, 0.004892189 , 0.00314244861, 0.437119544 , 0.806232154 , 0.742176652 , 0.00149181881, 0.00610959437, -1.06678653 , 1.79        , 23          , 50          , 0           , 0
0.0157638378, 0.00235907  , -9.80530548 , 0.0008467741, 0.004719099 , 0.00314243045, 0.437406778 , 0.8055364   , 0.7442824   , 0.00141664664, 0.00584444264, -1.06675553 , 1.8         , 23          , 11          , 0.0146599291, 0.0146598127
0.0215837527, -0.00218267739, -9.814813   , 0.0008467741, 0.004719099 , 0.00314243045, 0.437952459 , 0.8056709   , 0.743302047 , 0.00142529944, 0.00589158945, -1.06672406 , 1.81        , 23          , 12          , 0.04189735  , 0
0.01777587  , -0.0156124067, -9.824886   , 0.0008467741, 0.004719099 , 0.00314243045, 0.437952459 , 0.8056709   , 0.743302047 , 0.00143395329, 0.00593873532, -1.06669235 , 1.82        , 23          , 50          , 0           , 0
0.01693936  , -0.0102398116, -9.816258   , 0.0008467741, 0.004719099 , 0.00314243045, 0.4371215   , 0.806093335 , 0.74245733  , 0.001442609 , 0.00598588167, -1.06666088 , 1.83        , 23          , 11          , 0.0146599291, 0.0146598127
0.00423022173, -0.009817228, -9.787395   , 0.0008467741, 0.004719099 , 0.00314243045, 0.437131166 , 0.8058164   , 0.744702637 , 0.00145126623, 0.006033027 , -1.06662941 , 1.84        , 23          , 12          , 0.04189735  , 0
0.0169835016, -0.004952194, -9.79904652 , 0.0008467741, 0.004719099 , 0.00314243045, 0.437944472 , 0.8065041   , 0.742741    , 0.00145992485, 0.006080173 , -1.0665977  , 1.85        , 23          , 50          , 0           , 0
0.0143617392, -0.00291748159, -9.821169   , 0.0008467741, 0.004719099 , 0.00314243045, 0.437127739 , 0.805955    , 0.744001    , 0.001468585 , 0.00612731744, -1.06656623 , 1.86        , 23          , 11          , 0.0146599291, 0.0146598127
0.0127608851, -0.0135392519, -9.791915   , 0.0008467741, 0.004719099 , 0.00314243045, 0.4375394   , 0.8058129   , 0.743441    , 0.00147724652, 0.006174462 , -1.06653476 , 1.87        , 23          , 12          , 0.04189735  , 0
0.00135394046, -0.02402968 , -9.814185   , 0.0008467741, 0.004719099 , 0.00314243045, 0.4375394   , 0.8058129   , 0.743441    , 0.00148590945, 0.00622160546, -1.06650329 , 1.88        , 23          , 50          , 0           , 0
-0.00306513137, 0.006520655 , -9.833791   , 0.0008467741, 0.004719099 , 0.00314243045, 0.437116027 , 0.8066488   , 0.742036462 , 0.00149457366, 0.00626874948, -1.06647182 , 1.89        , 23          , 11          , 0.0146599291, 0.0146598127
0.0263384674, -0.0132271256, -9.801799   , 0.0008070361, 0.00459708  , 0.00314237527, 0.436989158 , 0.806233943 , 0.7442813   , 0.00142912508, 0.006089871 , -1.06644058 , 1.9         , 23          , 12          , 0.0426744148, 0
0.008254552 , -0.0160131566, -9.812279   , 0.0008070361, 0.00459708  , 0.00314237527, 0.4379455   , 0.806365132 , 0.7427409   , 0.00143738778, 0.00613579666, -1.06640911 , 1.91        , 23          , 50          , 0           , 0
0.0335321873, -0.0155847715, -9.804505   , 0.0008070361, 0.00459708  , 0.00314237527, 0.4367093   , 0.806374431 , 0.7431576   , 0.00144565233, 0.006181723 , -1.0663774  , 1.92        , 23          , 11          , 0.0149703855, 0.0149702663
0.0104212295, 0.006974731 , -9.805735   , 0.0008070361, 0.00459708  , 0.00314237527, 0.4367093   , 0.806374431 , 0.7431576   , 0.001453918 , 0.006227647 , -1.06634593 , 1.93        , 23          , 12          , 0.0426744148, 0
-0.0162048526, 0.009590739 , -9.79587    , 0.0008070361, 0.00459708  , 0.00314237527, 0.43726927  , 0.8055374   , 0.744281948 , 0.00146218541, 0.0062735714, -1.06631446 , 1.94        , 23          , 50          , 0           , 0
0.008401533 , -0.005253155, -9.800435   , 0.0008070361, 0.00459708  , 0.00314237527, 0.437529027 , 0.8066458   , 0.742178261 , 0.001470454 , 0.006319496 , -1.066283   , 1.95        , 23          , 11          , 0.0149703855, 0.0149702663
0.0192979518, -0.00395141 , -9.8152895  , 0.0008070361, 0.00459708  , 0.00314237527, 0.4371323   , 0.8053995   , 0.7441411   , 0.0014787243, 0.006365422 , -1.06625152 , 1.96        , 23          , 12          , 0.0426744148, 0
-0.00528249145, 0.009686984 , -9.829252   , 0.0008070361, 0.00459708  , 0.00314237527, 0.437947422 , 0.8062264   , 0.743021548 , 0.00148699619, 0.00641134474, -1.06622    , 1.97        , 23          , 50          , 0           , 0
0.0123629421, -0.0125052566, -9.806811   , 0.0008070361, 0.00459708  , 0.00314237527, 0.437947422 , 0.8062264   , 0.743021548 , 0.00149526924, 0.006457269 , -1.06618834 , 1.98        , 23          , 11          , 0.0149703855, 0.0149702663
0.0242200717, -0.005029684, -9.803989   , 0.0008070361, 0.00459708  , 0.00314237527, 0.437117577 , 0.8063709   , 0.741896033 , 0.00150354393, 0.00650319271, -1.06615686 , 1.99        , 23          , 12          , 0.0426744148, 0
0.009432219 , 0.00199901871, -9.803977   , 0.000697118056, 0.00414540246, 0.00314236945, 0.437542647 , 0.805952251 , 0.7447041   , 0.00130103633, 0.005691002 , -1.06612659 , 2           , 23          , 50          , 0           , 0
0.0136308521, -0.0166612566, -9.799168   , 0.000697118056, 0.00414540246, 0.00314236945, 0.437531471 , 0.806507051 , 0.7425992   , 0.00130818738, 0.005732415 , -1.06609511 , 2.01        , 23          , 11          , 0.015544734 , 0.0155446092
0.009278781 , -0.006636014, -9.799089   , 0.000697118056, 0.00414540246, 0.00314236945, 0.437127262 , 0.805954933 , 0.743860662 , 0.00131533924, 0.00577382743, -1.06606364 , 2.02        , 23          , 12          , 0.0434778   , 0
0.008845266 , -0.00614304328, -9.803152   , 0.000697118056, 0.00414540246, 0.00314236945, 0.43767792  , 0.805673    , 0.7434414   , 0.00132249307, 0.005815241 , -1.06603217 , 2.03        , 23          , 50          , 0           , 0
0.002031643 , -0.00659178942, -9.790083   , 0.000697118056, 0.00414540246, 0.00314236945, 0.43767792  , 0.805673    , 0.7434414   , 0.00132964819, 0.00585665228, -1.06600046 , 2.04        , 23          , 11          , 0.015544734 , 0.0155446092
-0.00296044676, -0.0108824372, -9.80866    , 0.000697118056, 0.00414540246, 0.00314236945, 0.437252581 , 0.806647658 , 0.74175626  , 0.00133680482, 0.005898064 , -1.06596875 , 2.05        , 23          , 12          , 0.0434778   , 0
0.00042542303, 0.00136026181, -9.81847    , 0.000697118056, 0.00414540246, 0.00314236945, 0.4372658   , 0.805815041 , 0.7438611   , 0.00134396181, 0.00593947573, -1.06593728 , 2.06        , 23          , 50          , 0           , 0
0.020954065 , -0.0138916951, -9.820344   , 0.000697118056, 0.00414540246, 0.00314236945, 0.437947571 , 0.8059483   , 0.7424601   , 0.00135112111, 0.005980889 , -1.06590581 , 2.07        , 23          , 11          , 0.015544734 , 0.0155446092
0.013661027 , -0.0169953387, -9.813624   , 0.000697118056, 0.00414540246, 0.00314236945, 0.437259346 , 0.8063704   , 0.743159533 , 0.00135828136, 0.00602229871, -1.06587434 , 2.08        , 23          , 12          , 0.0434778   , 0
0.006611236 , -0.004745424, -9.803598   , 0.000697118056, 0.00414540246, 0.00314236945, 0.437259346 , 0.8063704   , 0.743159533 , 0.00136544311, 0.00606371  , -1.06584287 , 2.09        , 23          , 50          , 0           , 0
0.01978911  , -0.00125955045, -9.813457   , 0.0006052335, 0.00357552362, 0.00314261578, 0.437677771 , 0.80595094  , 0.7440029   , 0.00119145738, 0.004997604 , -1.06581235 , 2.1         , 23          , 11          , 0.01456528  , 0.0145651745
0.009418368 , -0.000618923455, -9.815744   , 0.0006052335, 0.00357552362, 0.00314261578, 0.437528968 , 0.806784749 , 0.742459    , 0.00119766768, 0.00503332168, -1.06578088 , 2.11        , 23          , 12          , 0.0443057641, 0
0.01956092  , 0.01403858  , -9.802474   , 0.0006052335, 0.00357552362, 0.00314261578, 0.436988741 , 0.8060949   , 0.743860245 , 0.00120387925, 0.00506904  , -1.06574917 , 2.12        , 23          , 50          , 0           , 0
0.014962662 , 0.0065557207, -9.818821   , 0.0006052335, 0.00357552362, 0.00314261578, 0.438224941 , 0.8059466   , 0.7431627   , 0.00121009187, 0.00510475645, -1.0657177  , 2.13        , 23          , 11          , 0.01456528  , 0.0145651745
0.0251756255, -0.006595131, -9.835617   , 0.0006052335, 0.00357552362, 0.00314261578, 0.438224941 , 0.8059466   , 0.7431627   , 0.00121630542, 0.00514047453, -1.065686   , 2.14        , 23          , 12          , 0.0443057641, 0
0.0137614021, -0.0102435518, -9.809496   , 0.0006052335, 0.00357552362, 0.00314261578, 0.436847031 , 0.805956364 , 0.742315948 , 0.00122252072, 0.00517619029, -1.06565452 , 2.15        , 23          , 50          , 0           , 0
-0.00560278445, -0.03479717 , -9.811601   , 0.0006052335, 0.00357552362, 0.00314261578, 0.437544227 , 0.805674434 , 0.744563639 , 0.00122873683, 0.00521190837, -1.065623   , 2.16        , 23          , 11          , 0.01456528  , 0.0145651745
-0.01189434 , -0.008288322, -9.83125    , 0.0006052335, 0.00357552362, 0.00314261578, 0.4378099   , 0.8062274   , 0.7430211   , 0.00123495376, 0.005247624 , -1.06559157 , 2.17        , 23          , 12          , 0.0443057641, 0
0.00665267743, -0.00418592431, -9.816692   , 0.0006052335, 0.00357552362, 0.00314261578, 0.4374008   , 0.8060918   , 0.743721247 , 0.001241172 , 0.00528334128, -1.0655601  , 2.18        , 23          , 50          , 0           , 0
0.0109741092, -0.017311   , -9.824928   , 0.0006052335, 0.00357552362, 0.00314261578, 0.437815428 , 0.805672    , 0.7434419   , 0.00124739215, 0.005319056 , -1.06552863 , 2.19        , 23          , 11          , 0.01456528  , 0.0145651745
0.0256301574, -0.005734794, -9.831091   , 0.000615312834, 0.00349478726, 0.00314277783, 0.437815428 , 0.805672    , 0.7434419   , 0.00127322739, 0.00519456062, -1.06549668 , 2.2         , 23          , 12          , 0.0451566651, 0
0.03158719  , 0.00131053291, -9.819261   , 0.000615312834, 0.00349478726, 0.00314277783, 0.437119067 , 0.8062321   , 0.7420363   , 0.00127954478, 0.00522946753, -1.06546521 , 2.21        , 23          , 50          , 0           , 0
0.004824105 , -0.00465676375, -9.810831   , 0.000615312834, 0.00349478726, 0.00314277783, 0.437131763 , 0.8055384   , 0.7442815   , 0.00128586323, 0.00526437629, -1.06543374 , 2.22        , 23          , 11          , 0.0136923622, 0.0136922663
0.018764995 , -0.00763292657, -9.806744   , 0.000615312834, 0.00349478726, 0.00314277783, 0.437669456 , 0.8065061   , 0.742740035 , 0.00129218306, 0.00529928226, -1.06540227 , 2.23        , 23          , 12          , 0.0451566651, 0
0.02131201  , 0.009974971 , -9.807022   , 0.000615312834, 0.00349478726, 0.00314277783, 0.436985433 , 0.8060945   , 0.742877841 , 0.00129850372, 0.00533419  , -1.0653708  , 2.24        , 23          , 50          , 0           , 0
0.0127046518, -0.01929399 , -9.807325   , 0.000615312834, 0.00349478726, 0.00314277783, 0.436985433 , 0.8060945   , 0.742877841 , 0.001304826 , 0.0053690956, -1.06533909 , 2.25        , 23          , 11          , 0.0136923622, 0.0136922663
0.0005127373, -0.0229624342, -9.832245   , 0.000615312834, 0.00349478726, 0.00314277783, 0.4374053   , 0.805675268 , 0.7441422   , 0.00131114863, 0.005404004 , -1.06530738 , 2.26        , 23          , 12          , 0.0451566651, 0
0.008551419 , -0.0289498419, -9.835432   , 0.000615312834, 0.00349478726, 0.00314277783, 0.437254    , 0.806647837 , 0.7421773   , 0.00131747255, 0.00543891  , -1.06527591 , 2.27        , 23          , 50          , 0           , 0
0.0133021735, -0.0111186691, -9.812216   , 0.000615312834, 0.00349478726, 0.00314277783, 0.437268317 , 0.8055373   , 0.744001269 , 0.00132379762, 0.0054738163, -1.06524444 , 2.28        , 23          , 11          , 0.0136923622, 0.0136922663
-0.00198505446, -0.0068076984, -9.810876   , 0.000615312834, 0.00349478726, 0.00314277783, 0.437949926 , 0.8059486   , 0.743161738 , 0.0013301234, 0.005508723 , -1.065213   , 2.29        , 23          , 12          , 0.0451566651, 0
-0.01295449 , -0.0143460762, -9.807824   , 0.000589352741, 0.00325641269, 0.00314294663, 0.437949926 , 0.8059486   , 0.743161738 , 0.00128251489, 0.005059558 , -1.06518173 , 2.3         , 23          , 50          , 0           , 0
-0.0188813545, -0.01743492 , -9.805615   , 0.000589352741, 0.00325641269, 0.00314294663, 0.4369851   , 0.8058165   , 0.742176056 , 0.0012885679, 0.005092081 , -1.06515026 , 2.31        , 23          , 11          , 0.0141380746, 0.0141379694
0.00151712634, -0.01493491 , -9.819972   , 0.000589352741, 0.00325641269, 0.00314294663, 0.4371332   , 0.8055386   , 0.7447025   , 0.00129462266, 0.00512460573, -1.06511879 , 2.32        , 23          , 12          , 0.0460289344, 0
0.030848356 , 0.0129973581, -9.808314   , 0.000589352741, 0.00325641269, 0.00314294663, 0.437397867 , 0.8062305   , 0.74315995  , 0.00130067812, 0.00515712937, -1.06508708 , 2.33        , 23          , 50          , 0           , 0
0.0178001728, -0.0116744041, -9.808592   , 0.000589352741, 0.00325641269, 0.00314294663, 0.4371268   , 0.8059549   , 0.7437203   , 0.0013067344, 0.005189652 , -1.06505585 , 2.34        , 23          , 11          , 0.0141380746, 0.0141379694
-0.006415078, -0.004750848, -9.8321     , 0.000589352741, 0.00325641269, 0.00314294663, 0.4376743   , 0.8062286   , 0.743581951 , 0.00131279207, 0.005222175 , -1.06502414 , 2.35        , 23          , 12          , 0.0460289344, 0
0.01327658  , -0.009482997, -9.790972   , 0.000589352741, 0.00325641269, 0.00314294663, 0.4376743   , 0.8062286   , 0.743581951 , 0.00131885032, 0.005254698 , -1.06499267 , 2.36        , 23          , 50          , 0           , 0
0.0105652772, 0.0112896394, -9.835505   , 0.000589352741, 0.00325641269, 0.00314294663, 0.4369821   , 0.80609417  , 0.7418955   , 0.00132491009, 0.005287221 , -1.06496119 , 2.37        , 23          , 11          , 0.0141380746, 0.0141379694
0.00201007724, 0.0136472648, -9.830093   , 0.000589352741, 0.00325641269, 0.00314294663, 0.4372647   , 0.806093    , 0.7441419   , 0.00133097079, 0.005319743 , -1.06492972 , 2.38        , 23          , 12          , 0.0460289344, 0
0.00744492747, -0.009268768, -9.805445   , 0.000589352741, 0.00325641269, 0.00314294663, 0.438222528 , 0.806085348 , 0.742741764 , 0.00133703242, 0.005352266 , -1.06489825 , 2.39        , 23          , 50          , 0           , 0
0.01579671  , 0.00246254168, -9.817952   , 0.0005623751, 0.00293018762, 0.00314323045, 0.437126    , 0.8056768   , 0.742878139 , 0.00128514774, 0.00470555061, -1.06486678 , 2.4         , 23          , 11          , 0.0142260725, 0.0142259644
-0.003459938, -0.01660392 , -9.827232   , 0.0005623751, 0.00293018762, 0.00314323045, 0.437126    , 0.8056768   , 0.742878139 , 0.00129092031, 0.0047348123, -1.06483507 , 2.41        , 23          , 12          , 0.0469211   , 0
-0.001865107, -0.02845332 , -9.820109   , 0.0005623751, 0.00293018762, 0.00314323045, 0.437542737 , 0.805813253 , 0.7444234   , 0.00129669358, 0.00476407353, -1.0648036  , 2.42        , 23          , 50          , 0           , 0
0.0139252879, -0.0002884604, -9.809854   , 0.0005623751, 0.00293018762, 0.00314323045, 0.437395036 , 0.8062301   , 0.7423179   , 0.001302468 , 0.00479333429, -1.06477189 , 2.43        , 23          , 11          , 0.0142260725, 0.0142259644
0.00158709288, -0.009566002, -9.812695   , 0.0005623751, 0.00293018762, 0.00314323045, 0.437403232 , 0.805953    , 0.7441423   , 0.00130824361, 0.00482259551, -1.06474042 , 2.44        , 23          , 12          , 0.0469211   , 0
-0.001406468, -0.02543477 , -9.802917   , 0.0005623751, 0.00293018762, 0.00314323045, 0.437948376 , 0.8062265   , 0.7433022   , 0.0013140199, 0.004851856 , -1.064709   , 2.45        , 23          , 50          , 0           , 0
-0.001439074, -8.177012E-05, -9.804488   , 0.0005623751, 0.00293018762, 0.00314323045, 0.437948376 , 0.8062265   , 0.7433022   , 0.00131979678, 0.004881116 , -1.06467724 , 2.46        , 23          , 11          , 0.0142260725, 0.0142259644
0.00969645  , -0.0136147281, -9.831673   , 0.0005623751, 0.00293018762, 0.00314323045, 0.437260121 , 0.805814445 , 0.742177    , 0.00132557482, 0.004910376 , -1.06464577 , 2.47        , 23          , 12          , 0.0469211   , 0
0.0179772079, 3.83034348E-05, -9.802609   , 0.0005623751, 0.00293018762, 0.00314323045, 0.436857164 , 0.80567956  , 0.7447016   , 0.00133135391, 0.00493963575, -1.064614   , 2.48        , 23          , 50          , 0           , 0
0.00507228263, 0.008137984 , -9.826521   , 0.0005623751, 0.00293018762, 0.00314323045, 0.437530458 , 0.80664593  , 0.742599249 , 0.00133713381, 0.00496889558, -1.06458259 , 2.49        , 23          , 11          , 0.0142260725, 0.0142259644
-0.000154254027, -0.00504266471, -9.809046   , 0.000525744865, 0.002854342 , 0.00314311218, 0.436991334 , 0.8056781   , 0.7437197   , 0.0012643286, 0.0048365565, -1.06455159 , 2.5         , 23          , 12          , 0.04783177  , 0
0.007872574 , -0.009780223, -9.799124   , 0.000525744865, 0.002854342 , 0.00314311218, 0.437676817 , 0.8059508   , 0.7437222   , 0.001269739 , 0.00486506  , -1.06452012 , 2.51        , 23          , 50          , 0           , 0
0.0129190218, -0.009180002, -9.827104   , 0.000525744865, 0.002854342 , 0.00314311218, 0.437676817 , 0.8059508   , 0.7437222   , 0.00127515011, 0.00489356369, -1.06448841 , 2.52        , 23          , 11          , 0.01379832  , 0.0137982173
0.0116721205, 0.000619875267, -9.805789   , 0.000525744865, 0.002854342 , 0.00314311218, 0.436844051 , 0.8062341   , 0.7420354   , 0.00128056225, 0.00492206635, -1.0644567  , 2.53        , 23          , 12          , 0.04783177  , 0
0.009941926 , 0.00732359849, -9.792183   , 0.000525744865, 0.002854342 , 0.00314311218, 0.436993718 , 0.8056784   , 0.7444214   , 0.00128597522, 0.004950569 , -1.06442523 , 2.54        , 23          , 50          , 0           , 0
0.0147902071, -0.00385540165, -9.818014   , 0.000525744865, 0.002854342 , 0.00314311218, 0.438084871 , 0.806364357 , 0.743302763 , 0.00129138923, 0.004979072 , -1.06439376 , 2.55        , 23          , 11          , 0.01379832  , 0.0137982173
0.0230269432, 0.00322320848, -9.814757   , 0.000525744865, 0.002854342 , 0.00314311218, 0.4369875   , 0.8058167   , 0.7428777   , 0.0012968037, 0.00500757433, -1.064362   , 2.56        , 23          , 12          , 0.04783177  , 0
0.0170028731, -0.007036503, -9.820745   , 0.000525744865, 0.002854342 , 0.00314311218, 0.4369875   , 0.8058167   , 0.7428777   , 0.00130221946, 0.00503607653, -1.06433034 , 2.57        , 23          , 50          , 0           , 0
0.001554692 , -0.010526102, -9.805929   , 0.000525744865, 0.002854342 , 0.00314311218, 0.43754524  , 0.8055355   , 0.7445636   , 0.00130763615, 0.00506457873, -1.06429887 , 2.58        , 23          , 11          , 0.01379832  , 0.0137982173
0.02989735  , -0.0164562464, -9.801365   , 0.000525744865, 0.002854342 , 0.00314311218, 0.437395036 , 0.8062301   , 0.7423179   , 0.00131305365, 0.00509308046, -1.0642674  , 2.59        , 23          , 12          , 0.04783177  , 0
0.0162346549, -0.0234721247, -9.801478   , 0.0005800775, 0.00255585276, 0.00314383558, 0.436853766 , 0.805818141 , 0.743999958 , 0.00143561093, 0.00446757162, -1.06423473 , 2.6         , 23          , 50          , 0           , 0
0.0119078215, -0.0112221576, -9.79686451 , 0.0005800775, 0.00255585276, 0.00314383558, 0.437674433 , 0.8059506   , 0.743020535 , 0.00144155289, 0.00449308474, -1.064203   , 2.61        , 23          , 11          , 0.0142105827, 0.0142104682
0.011437092 , -0.0147078279, -9.812255   , 0.0005800775, 0.00255585276, 0.00314383558, 0.437674433 , 0.8059506   , 0.743020535 , 0.00144749589, 0.004518597 , -1.06417155 , 2.62        , 23          , 12          , 0.0487596355, 0
0.0254274085, -0.0145250233, -9.807234   , 0.0005800775, 0.00255585276, 0.00314383558, 0.437118471 , 0.806510031 , 0.742457449 , 0.00145343912, 0.00454411  , -1.06414008 , 2.63        , 23          , 50          , 0           , 0
0.014587814 , -0.0122154728, -9.791444   , 0.0005800775, 0.00255585276, 0.00314383558, 0.437267631 , 0.8059543   , 0.7447032   , 0.00145938364, 0.00456962269, -1.06410861 , 2.64        , 23          , 11          , 0.0142105827, 0.0142104682
0.005411412 , 0.003915461 , -9.808943   , 0.0005800775, 0.00255585276, 0.00314383558, 0.43767     , 0.8063671   , 0.7425996   , 0.00146532874, 0.004595136 , -1.06407714 , 2.65        , 23          , 12          , 0.0487596355, 0
0.011305958 , -0.02327266 , -9.81594849 , 0.0005800775, 0.00255585276, 0.00314383558, 0.437127352 , 0.805815935 , 0.7435799   , 0.001471275 , 0.004620647 , -1.06404519 , 2.66        , 23          , 50          , 0           , 0
0.0124205826, -0.009320425, -9.80904    , 0.0005800775, 0.00255585276, 0.00314383558, 0.437400848 , 0.8059528   , 0.743440568 , 0.00147722138, 0.00464615924, -1.06401372 , 2.67        , 23          , 11          , 0.0142105827, 0.0142104682
0.0010318351, -0.01760829 , -9.824063   , 0.0005800775, 0.00255585276, 0.00314383558, 0.437400848 , 0.8059528   , 0.743440568 , 0.00148316892, 0.004671671 , -1.06398225 , 2.68        , 23          , 12          , 0.0487596355, 0
0.0111791994, 6.775744E-05, -9.792697   , 0.0005800775, 0.00255585276, 0.00314383558, 0.437393069 , 0.806368947 , 0.7420373   , 0.00148911739, 0.004697183 , -1.06395078 , 2.69        , 23          , 50          , 0           , 0
0.0218115039, 0.0114058889, -9.816944   , 0.0005048366, 0.0023755678, 0.00314365141, 0.436988682 , 0.8062339   , 0.744141    , 0.00132586132, 0.00432056049, -1.06391978 , 2.7         , 23          , 11          , 0.012291126 , 0.0122910487
0.008521634 , -0.000155515969, -9.815293   , 0.0005048366, 0.0023755678, 0.00314365141, 0.437948436 , 0.8060875   , 0.7430215   , 0.00133104611, 0.00434427429, -1.06388831 , 2.71        , 23          , 12          , 0.04970347  , 0
0.0104943356, -0.0161054973, -9.805497   , 0.0005048366, 0.0023755678, 0.00314365141, 0.43698588  , 0.8060946   , 0.7430182   , 0.00133623171, 0.004367988 , -1.06385684 , 2.72        , 23          , 50          , 0           , 0
0.0100387493, -0.01825633 , -9.818165   , 0.0005048366, 0.0023755678, 0.00314365141, 0.43698588  , 0.8060946   , 0.7430182   , 0.001341418 , 0.00439170143, -1.06382537 , 2.73        , 23          , 11          , 0.012291126 , 0.0122910487
0.0115428651, -0.00708092935, -9.804506   , 0.0005048366, 0.0023755678, 0.00314365141, 0.437542737 , 0.805813253 , 0.7444234   , 0.00134660548, 0.00441541476, -1.06379366 , 2.74        , 23          , 12          , 0.04970347  , 0
0.0153549416, -0.02080985 , -9.793327   , 0.0005048366, 0.0023755678, 0.00314365141, 0.437392    , 0.8066468   , 0.7423181   , 0.00135179341, 0.00443912763, -1.06376219 , 2.75        , 23          , 50          , 0           , 0
-0.00087586086, -0.0217606425, -9.810559   , 0.0005048366, 0.0023755678, 0.00314365141, 0.436718225 , 0.8056804   , 0.7442801   , 0.00135698169, 0.004462841 , -1.06373048 , 2.76        , 23          , 11          , 0.012291126 , 0.0122910487
-0.004753799, -0.0112424158, -9.816347   , 0.0005048366, 0.0023755678, 0.00314365141, 0.438224941 , 0.8059466   , 0.7431627   , 0.00136217114, 0.004486554 , -1.063699   , 2.77        , 23          , 12          , 0.04970347  , 0
0.0159293357, -0.0122782737, -9.786472   , 0.0005048366, 0.0023755678, 0.00314365141, 0.438224941 , 0.8059466   , 0.7431627   , 0.00136736128, 0.004510266 , -1.06366754 , 2.78        , 23          , 50          , 0           , 0
0.004404089 , -0.001976015, -9.80584049 , 0.0005048366, 0.0023755678, 0.00314365141, 0.436981559 , 0.8062331   , 0.742035866 , 0.00137255248, 0.00453397864, -1.06363583 , 2.79        , 23          , 11          , 0.012291126 , 0.0122910487
0.0362886377, 0.0146959331, -9.805569   , 0.000451337022, 0.002186818 , 0.00314361439, 0.4371281   , 0.8062331   , 0.744702756 , 0.00125456334, 0.004128029 , -1.06360507 , 2.8         , 23          , 12          , 0.0506621264, 0
0.01969261  , -0.007570091, -9.816224   , 0.000451337022, 0.002186818 , 0.00314361439, 0.4373939   , 0.806647062 , 0.74287945  , 0.00125920714, 0.004149858 , -1.06357312 , 2.81        , 23          , 50          , 0           , 0
-0.0115449931, -0.0129077574, -9.820452   , 0.000451337022, 0.002186818 , 0.00314361439, 0.436851233 , 0.8060959   , 0.743859768 , 0.00126385165, 0.00417168625, -1.06354165 , 2.82        , 23          , 11          , 0.0121179223, 0.0121178385
-0.0122644622, 0.0009853318, -9.80271149 , 0.000451337022, 0.002186818 , 0.00314361439, 0.437542379 , 0.805535138 , 0.743721545 , 0.00126849662, 0.00419351459, -1.06351018 , 2.83        , 23          , 12          , 0.0506621264, 0
0.0104547748, -0.0200915355, -9.815922   , 0.000451337022, 0.002186818 , 0.00314361439, 0.437542379 , 0.805535138 , 0.743721545 , 0.00127314276, 0.00421534246, -1.06347871 , 2.84        , 23          , 50          , 0           , 0
-0.00639206776, -0.003820311, -9.835254   , 0.000451337022, 0.002186818 , 0.00314361439, 0.436981559 , 0.8062331   , 0.742035866 , 0.00127778924, 0.00423717  , -1.063447   , 2.85        , 23          , 11          , 0.0121179223, 0.0121178385
-0.00627561053, 0.006843623 , -9.811668   , 0.000451337022, 0.002186818 , 0.00314361439, 0.436857224 , 0.8055405   , 0.7444209   , 0.00128243642, 0.00425899867, -1.06341553 , 2.86        , 23          , 12          , 0.0506621264, 0
0.00267573958, -0.0224383269, -9.790227   , 0.000451337022, 0.002186818 , 0.00314361439, 0.437809855 , 0.8063664   , 0.7433018   , 0.00128708431, 0.00428082561, -1.06338382 , 2.87        , 23          , 50          , 0           , 0
0.0213733763, -0.0131422151, -9.802268   , 0.000451337022, 0.002186818 , 0.00314361439, 0.437122315 , 0.80637145  , 0.7432994   , 0.001291733 , 0.00430265348, -1.06335235 , 2.88        , 23          , 11          , 0.0121179223, 0.0121178385
0.0317144133, -0.01430539 , -9.791401   , 0.000451337022, 0.002186818 , 0.00314361439, 0.437122315 , 0.80637145  , 0.7432994   , 0.00129638251, 0.00432448043, -1.06332088 , 2.89        , 23          , 12          , 0.0506621264, 0
0.0153437043, 0.006326632 , -9.791721   , 0.000457977672, 0.002143927 , 0.00314369914, 0.4372682   , 0.805815339 , 0.744562745 , 0.00131616346, 0.0042465264, -1.0632894  , 2.9         , 23          , 50          , 0           , 0
0.0038484768, -0.0104484688, -9.819921   , 0.000457977672, 0.002143927 , 0.00314369914, 0.437667966 , 0.8066449   , 0.7425997   , 0.00132087758, 0.00426792353, -1.06325769 , 2.91        , 23          , 11          , 0.0119900927, 0.0119900005
0.002246567 , -0.02236074 , -9.798809   , 0.000457977672, 0.002143927 , 0.00314369914, 0.436853677 , 0.805957139 , 0.7442807   , 0.00132559193, 0.004289321 , -1.063226   , 2.92        , 23          , 12          , 0.0516345352, 0
0.0100494316, -0.0152193075, -9.802328   , 0.000457977672, 0.002143927 , 0.00314369914, 0.437812418 , 0.8059496   , 0.743161261 , 0.001330307 , 0.004310719 , -1.06319451 , 2.93        , 23          , 50          , 0           , 0
0.0294768661, -0.0172094237, -9.818988   , 0.000457977672, 0.002143927 , 0.00314369914, 0.437812418 , 0.8059496   , 0.743161261 , 0.0013350232, 0.00433211541, -1.063163   , 2.94        , 23          , 11          , 0.0119900927, 0.0119900005
0.007827491 , -0.0133545753, -9.804577   , 0.000457977672, 0.002143927 , 0.00314369914, 0.436845064 , 0.806095243 , 0.7420353   , 0.00133973954, 0.004353513 , -1.06313157 , 2.95        , 23          , 12          , 0.0516345352, 0
-0.006316231, 0.00585764647, -9.801741   , 0.000457977672, 0.002143927 , 0.00314369914, 0.437402159 , 0.806230962 , 0.744423032 , 0.001344457 , 0.00437491  , -1.06309986 , 2.96        , 23          , 50          , 0           , 0
-0.007267353, -0.02659972 , -9.814692   , 0.000457977672, 0.002143927 , 0.00314369914, 0.437531948 , 0.8065071   , 0.742739558 , 0.001349175 , 0.004396307 , -1.06306839 , 2.97        , 23          , 11          , 0.0119900927, 0.0119900005
0.0189804211, 0.00377155631, -9.81838    , 0.000457977672, 0.002143927 , 0.00314369914, 0.4374048   , 0.8056752   , 0.7440018   , 0.00135389413, 0.004417703 , -1.06303668 , 2.98        , 23          , 12          , 0.0516345352, 0
-0.0106779588, -0.0138937049, -9.812328   , 0.000457977672, 0.002143927 , 0.00314369914, 0.4374048   , 0.8056752   , 0.7440018   , 0.0013586136, 0.004439099 , -1.06300521 , 2.99        , 23          , 50          , 0           , 0
0.0120447092, -0.00564262271, -9.81533051 , 0.0004597021, 0.00201669475, 0.00314388215, 0.437542379 , 0.805535138 , 0.743721545 , 0.00136646186, 0.00415834645, -1.06297374 , 3           , 23          , 11          , 0.0119390823, 0.0119389826
0.000167267863, -0.0136111826, -9.813189   , 0.0004597021, 0.00201669475, 0.00314388215, 0.436981559 , 0.8062331   , 0.742035866 , 0.00137119042, 0.00417847  , -1.062942   , 3.01        , 23          , 12          , 0.05261967  , 0
-0.0006131255, -0.005487619, -9.809052   , 0.0004597021, 0.00201669475, 0.00314388215, 0.436853141 , 0.806096137 , 0.7444211   , 0.00137591909, 0.004198594 , -1.06291056 , 3.02        , 23          , 50          , 0           , 0
0.0112678353, 0.00249202922, -9.812549   , 0.0004597021, 0.00201669475, 0.00314388215, 0.437948436 , 0.8060875   , 0.7430215   , 0.00138064858, 0.00421871757, -1.06287885 , 3.03        , 23          , 11          , 0.0119390823, 0.0119389826
0.00548217  , -0.0191721637, -9.807802   , 0.0004597021, 0.00201669475, 0.00314388215, 0.436985433 , 0.8060945   , 0.742877841 , 0.001385379 , 0.00423884  , -1.06284738 , 3.04        , 23          , 12          , 0.05261967  , 0
-0.004480998, -0.0221095681, -9.815995   , 0.0004597021, 0.00201669475, 0.00314388215, 0.436985433 , 0.8060945   , 0.742877841 , 0.00139010977, 0.00425896375, -1.0628159  , 3.05        , 23          , 50          , 0           , 0
0.0026297546, -0.00485047325, -9.83794    , 0.0004597021, 0.00201669475, 0.00314388215, 0.4371302   , 0.8058163   , 0.744421959 , 0.00139484135, 0.004279087 , -1.06278443 , 3.06        , 23          , 11          , 0.0119390823, 0.0119389826
0.0211172458, -0.0005063638, -9.797635   , 0.0004597021, 0.00201669475, 0.00314388215, 0.437117457 , 0.8066489   , 0.7424575   , 0.0013995734, 0.00429920852, -1.06275272 , 3.07        , 23          , 12          , 0.05261967  , 0
0.011308454 , 0.007768564 , -9.793981   , 0.0004597021, 0.00201669475, 0.00314388215, 0.436440676 , 0.8059601   , 0.744138956 , 0.00140430592, 0.004319332 , -1.062721   , 3.08        , 23          , 50          , 0           , 0
0.0162727218, 0.008110117 , -9.790346   , 0.0004597021, 0.00201669475, 0.00314388215, 0.437538445 , 0.8058128   , 0.7431603   , 0.00140903937, 0.004339454 , -1.06268954 , 3.09        , 23          , 11          , 0.0119390823, 0.0119389826
0.00159613171, -0.005676035, -9.790527   , 0.0003839205, 0.001925405 , 0.003143616 , 0.437538445 , 0.8058128   , 0.7431603   , 0.00122902589, 0.004138506 , -1.062659   , 3.1         , 23          , 12          , 0.053616602 , 0
0.00163299509, -0.00641812151, -9.810407   , 0.0003839205, 0.001925405 , 0.003143616 , 0.436846644 , 0.805817366 , 0.7418949   , 0.00123299588, 0.004157721 , -1.06262732 , 3.11        , 23          , 50          , 0           , 0
0.0104965977, 0.008928185 , -9.823331   , 0.0003839205, 0.001925405 , 0.003143616 , 0.437129647 , 0.805955231 , 0.7445623   , 0.00123696623, 0.00417693565, -1.06259584 , 3.12        , 23          , 11          , 0.0121183358, 0.0121182241
0.0320682563, 0.00311248749, -9.81924248 , 0.0003839205, 0.001925405 , 0.003143616 , 0.437534451 , 0.806229353 , 0.742879748 , 0.0012409375, 0.004196151 , -1.06256413 , 3.13        , 23          , 12          , 0.053616602 , 0
0.01710442  , 0.00400954671, -9.788574   , 0.0003839205, 0.001925405 , 0.003143616 , 0.436992824 , 0.80553925  , 0.74386     , 0.001244909 , 0.00421536574, -1.06253266 , 3.14        , 23          , 50          , 0           , 0
0.003268331 , -0.0159947556, -9.804618   , 0.0003839205, 0.001925405 , 0.003143616 , 0.436992824 , 0.80553925  , 0.74386     , 0.00124888145, 0.00423458032, -1.06250119 , 3.15        , 23          , 11          , 0.0121183358, 0.0121182241
0.006634684 , -0.03270158 , -9.815601   , 0.0003839205, 0.001925405 , 0.003143616 , 0.437542319 , 0.8056742   , 0.7440023   , 0.00125285471, 0.00425379537, -1.06246972 , 3.16        , 23          , 12          , 0.053616602 , 0
0.01679922  , 0.009626027 , -9.810656   , 0.0003839205, 0.001925405 , 0.003143616 , 0.4371215   , 0.806093335 , 0.74245733  , 0.0012568282, 0.00427301  , -1.062438   , 3.17        , 23          , 50          , 0           , 0
0.0177891366, -0.015141597, -9.827141   , 0.0003839205, 0.001925405 , 0.003143616 , 0.4368552   , 0.8058183   , 0.744421    , 0.00126080227, 0.0042922236, -1.0624063  , 3.18        , 23          , 11          , 0.0121183358, 0.0121182241
0.016795665 , -0.0184151251, -9.81227    , 0.0003839205, 0.001925405 , 0.003143616 , 0.437810868 , 0.8062275   , 0.743301749 , 0.00126477692, 0.00431143865, -1.06237483 , 3.19        , 23          , 12          , 0.053616602 , 0
0.0212987438, 0.009504158 , -9.804769   , 0.000397934462, 0.00186676066, 0.003143755 , 0.4369885   , 0.805677831 , 0.742877662 , 0.001303069 , 0.004184855 , -1.06234288 , 3.2         , 23          , 50          , 0           , 0
0.00339656253, 0.0141550452, -9.839568   , 0.000397934462, 0.00186676066, 0.003143755 , 0.4369885   , 0.805677831 , 0.742877662 , 0.00130718038, 0.004203482 , -1.06231141 , 3.21        , 23          , 11          , 0.0121061411, 0.01210602
0.0241464656, -0.01341345 , -9.829812   , 0.000397934462, 0.00186676066, 0.003143755 , 0.437545717 , 0.805535555 , 0.744703948 , 0.00131129252, 0.00422210759, -1.06227994 , 3.22        , 23          , 12          , 0.0546244569, 0
0.04113736  , -0.0210792013, -9.811756   , 0.000397934462, 0.00186676066, 0.003143755 , 0.437252373 , 0.807064652 , 0.7425985   , 0.00131540489, 0.004240734 , -1.06224847 , 3.23        , 23          , 50          , 0           , 0
0.0118771847, -0.01861257 , -9.833518   , 0.000397934462, 0.00186676066, 0.003143755 , 0.436717272 , 0.8056803   , 0.7439994   , 0.00131951843, 0.00425936049, -1.062217   , 3.24        , 23          , 11          , 0.0121061411, 0.01210602
0.009146359 , -0.01820831 , -9.822233   , 0.000397934462, 0.00186676066, 0.003143755 , 0.437675864 , 0.805950761 , 0.7434415   , 0.00132363231, 0.004277986 , -1.062185   , 3.25        , 23          , 12          , 0.0546244569, 0
0.0017082477, -0.00317786448, -9.81941    , 0.000397934462, 0.00186676066, 0.003143755 , 0.437675864 , 0.805950761 , 0.7434415   , 0.00132774678, 0.004296612 , -1.06215358 , 3.26        , 23          , 50          , 0           , 0
0.0123261958, -0.0173405427, -9.824019   , 0.000397934462, 0.00186676066, 0.003143755 , 0.436980546 , 0.806372    , 0.742035866 , 0.00133186171, 0.004315238 , -1.06212211 , 3.27        , 23          , 11          , 0.0121061411, 0.01210602
0.003435708 , -0.0340586379, -9.809302   , 0.000397934462, 0.00186676066, 0.003143755 , 0.437132657 , 0.805677533 , 0.7448429   , 0.00133597723, 0.0043338635, -1.06209064 , 3.28        , 23          , 12          , 0.0546244569, 0
0.01023457  , -0.006484501, -9.81941    , 0.000397934462, 0.00186676066, 0.003143755 , 0.437533349 , 0.8065073   , 0.743160546 , 0.00134009356, 0.00435248856, -1.06205916 , 3.29        , 23          , 50          , 0           , 0
-0.002582577, -0.0149830189, -9.805985   , 0.0003879584, 0.00181730231, 0.00314376131, 0.436715782 , 0.8058191   , 0.7438592   , 0.00131840061, 0.004245426 , -1.06202769 , 3.3         , 23          , 11          , 0.012255813 , 0.0122556789
0.0101877274, -0.007919101, -9.809938   , 0.0003879584, 0.00181730231, 0.00314376131, 0.436715782 , 0.8058191   , 0.7438592   , 0.00132241414, 0.00426355749, -1.061996   , 3.31        , 23          , 12          , 0.0556424037, 0
0.0180849768, 0.007242428 , -9.798478   , 0.0003879584, 0.00181730231, 0.00314376131, 0.437954783 , 0.805810153 , 0.744284451 , 0.00132642826, 0.004281688 , -1.06196451 , 3.32        , 23          , 50          , 0           , 0
0.0141011151, -0.016609516, -9.806392   , 0.0003879584, 0.00181730231, 0.00314376131, 0.437118053 , 0.806371    , 0.742036343 , 0.00133044284, 0.004299819 , -1.0619328  , 3.33        , 23          , 11          , 0.012255813 , 0.0122556789
0.0106333354, -0.0122355362, -9.836174   , 0.0003879584, 0.00181730231, 0.00314376131, 0.437131226 , 0.8056774   , 0.7444219   , 0.00133445824, 0.00431795046, -1.06190133 , 3.34        , 23          , 12          , 0.0556424037, 0
0.008731976 , -0.012935468, -9.802312   , 0.0003879584, 0.00181730231, 0.00314376131, 0.437532961 , 0.8063682   , 0.7427395   , 0.00133847422, 0.004336081 , -1.06186986 , 3.35        , 23          , 50          , 0           , 0
0.016412748 , -0.01475949 , -9.81585    , 0.0003879584, 0.00181730231, 0.00314376131, 0.436846346 , 0.806373358 , 0.7430178   , 0.00134249078, 0.004354212 , -1.06183839 , 3.36        , 23          , 11          , 0.012255813 , 0.0122556789
0.005204676 , -0.008319791, -9.806347   , 0.0003879584, 0.00181730231, 0.00314376131, 0.436846346 , 0.806373358 , 0.7430178   , 0.001346508 , 0.004372343 , -1.06180668 , 3.37        , 23          , 12          , 0.0556424037, 0
0.0105706435, -0.011574747, -9.806357   , 0.0003879584, 0.00181730231, 0.00314376131, 0.437545717 , 0.805535555 , 0.744703948 , 0.00135052553, 0.00439047255, -1.061775   , 3.38        , 23          , 50          , 0           , 0
0.0126816425, -0.0202245321, -9.80417252 , 0.0003879584, 0.00181730231, 0.00314376131, 0.437530458 , 0.80664593  , 0.742599249 , 0.00135454361, 0.00440860353, -1.0617435  , 3.39        , 23          , 11          , 0.012255813 , 0.0122556789
0.0211529378, -0.00125214271, -9.817063   , 0.00042681265, 0.00164921593, 0.00314417714, 0.436989754 , 0.805955946 , 0.7438602   , 0.00145822263, 0.00398838  , -1.06171155 , 3.4         , 23          , 12          , 0.0566696823, 0
0.0203947   , -0.0198016353, -9.815884   , 0.00042681265, 0.00164921593, 0.00314417714, 0.437812418 , 0.8059496   , 0.743161261 , 0.001462617 , 0.0040048263, -1.06168008 , 3.41        , 23          , 50          , 0           , 0
0.008523982 , -0.000148126855, -9.816196   , 0.00042681265, 0.00164921593, 0.00314417714, 0.437812418 , 0.8059496   , 0.743161261 , 0.00146701152, 0.004021272 , -1.06164837 , 3.42        , 23          , 11          , 0.01251344  , 0.0125132911
-0.00600879826, -0.00704577565, -9.828959   , 0.00042681265, 0.00164921593, 0.00314417714, 0.43712008  , 0.8060932   , 0.7420363   , 0.00147140678, 0.004037718 , -1.0616169  , 3.43        , 23          , 12          , 0.0566696823, 0
0.0169455819, -0.00550060533, -9.787309   , 0.00042681265, 0.00164921593, 0.00314417714, 0.437129647 , 0.805955231 , 0.7445623   , 0.00147580227, 0.00405416358, -1.06158519 , 3.44        , 23          , 50          , 0           , 0
0.01779207  , -0.01298707 , -9.814023   , 0.00042681265, 0.00164921593, 0.00314417714, 0.437811941 , 0.805949569 , 0.743020952 , 0.0014801987, 0.00407060841, -1.06155372 , 3.45        , 23          , 11          , 0.01251344  , 0.0125132911
0.0140091106, 0.00340783061, -9.819304   , 0.00042681265, 0.00164921593, 0.00314417714, 0.436717331 , 0.8055412   , 0.7437187   , 0.001484595 , 0.004087054 , -1.06152225 , 3.46        , 23          , 12          , 0.0566696823, 0
0.00384131726, -0.009183841, -9.808619   , 0.00042681265, 0.00164921593, 0.00314417714, 0.436717331 , 0.8055412   , 0.7437187   , 0.0014889919, 0.0041035   , -1.06149054 , 3.47        , 23          , 50          , 0           , 0
0.00367253087, 0.007159386 , -9.814791   , 0.00042681265, 0.00164921593, 0.00314417714, 0.4376758   , 0.806089759 , 0.7437222   , 0.00149338937, 0.004119945 , -1.06145906 , 3.48        , 23          , 11          , 0.01251344  , 0.0125132911
0.021332169 , -0.0162753128, -9.806362   , 0.00042681265, 0.00164921593, 0.00314417714, 0.4372555   , 0.806508958 , 0.742317557 , 0.00149778777, 0.004136389 , -1.06142735 , 3.49        , 23          , 12          , 0.0566696823, 0
0.00672428869, 0.000330047682, -9.815746   , 0.0004329015, 0.0015786374, 0.00314429286, 0.437127739 , 0.805955    , 0.744001    , 0.0015177246, 0.00396455871, -1.06139588 , 3.5         , 23          , 50          , 0           , 0
0.0118871946, 0.0115941968, -9.82014    , 0.0004329015, 0.0015786374, 0.00314429286, 0.4376749   , 0.805950642 , 0.743160844 , 0.00152217888, 0.003980297 , -1.06136441 , 3.51        , 23          , 11          , 0.0120666763, 0.01206654
-0.0014711516, -0.0329323336, -9.826473   , 0.0004329015, 0.0015786374, 0.00314429286, 0.436706424 , 0.806513131 , 0.7425963   , 0.00152663351, 0.00399603555, -1.061333   , 3.52        , 23          , 12          , 0.0577055737, 0
0.02035091  , -0.0246590916, -9.830382   , 0.0004329015, 0.0015786374, 0.00314429286, 0.436706424 , 0.806513131 , 0.7425963   , 0.00153108872, 0.004011775 , -1.06130147 , 3.53        , 23          , 50          , 0           , 0
0.01320145  , -0.0183006227, -9.819057   , 0.0004329015, 0.0015786374, 0.00314429286, 0.437820733 , 0.8055335   , 0.7447049   , 0.00153554452, 0.004027512 , -1.06127    , 3.54        , 23          , 11          , 0.0120666763, 0.01206654
0.005440494 , -0.0214486253, -9.806016   , 0.0004329015, 0.0015786374, 0.00314429286, 0.437256455 , 0.8065091   , 0.742598236 , 0.00154000067, 0.00404325  , -1.06123853 , 3.55        , 23          , 12          , 0.0577055737, 0
0.01861602  , -0.0179701485, -9.81497    , 0.0004329015, 0.0015786374, 0.00314429286, 0.436990231 , 0.805956    , 0.7440005   , 0.00154445681, 0.00405898876, -1.061207   , 3.56        , 23          , 50          , 0           , 0
0.0400797   , -0.00467686355, -9.823351   , 0.0004329015, 0.0015786374, 0.00314429286, 0.4376754   , 0.8059507   , 0.7433012   , 0.001548914 , 0.00407472625, -1.06117558 , 3.57        , 23          , 11          , 0.0120666763, 0.01206654
0.00590069266, 0.00574328564, -9.812086   , 0.0004329015, 0.0015786374, 0.00314429286, 0.4376754   , 0.8059507   , 0.7433012   , 0.00155337178, 0.00409046328, -1.06114411 , 3.58        , 23          , 12          , 0.0577055737, 0
-0.006795415, 0.0006291568, -9.825277   , 0.0004329015, 0.0015786374, 0.00314429286, 0.43711704  , 0.8065099   , 0.7420364   , 0.00155782979, 0.00410620077, -1.06111264 , 3.59        , 23          , 50          , 0           , 0
0.0270576142, 0.00477025472, -9.790791   , 0.000416439521, 0.00152932154, 0.00314427959, 0.437130123 , 0.8059553   , 0.7447027   , 0.00151686266, 0.00398756051, -1.06108117 , 3.6         , 23          , 11          , 0.0119222151, 0.0119220773
0.0105753411, -0.007269403, -9.77967    , 0.000416439521, 0.00152932154, 0.00314427959, 0.437807441 , 0.806505144 , 0.7428808   , 0.00152115268, 0.00400280673, -1.0610497  , 3.61        , 23          , 12          , 0.0587494075, 0
0.0115207965, -0.00972474553, -9.813112   , 0.000416439521, 0.00152932154, 0.00314427959, 0.437128842 , 0.8056771   , 0.7437202   , 0.00152544351, 0.004018051 , -1.06101823 , 3.62        , 23          , 50          , 0           , 0
0.0100705624, -0.0108622294, -9.781962   , 0.000416439521, 0.00152932154, 0.00314427959, 0.437128842 , 0.8056771   , 0.7437202   , 0.00152973447, 0.004033296 , -1.06098676 , 3.63        , 23          , 11          , 0.0119222151, 0.0119220773
0.0004244838, 0.00307353  , -9.80671    , 0.000416439521, 0.00152932154, 0.00314427959, 0.4378178   , 0.8056722   , 0.7441436   , 0.00153402635, 0.004048542 , -1.06095529 , 3.64        , 23          , 12          , 0.0587494075, 0
-0.009028039, 0.00374743319, -9.814868   , 0.000416439521, 0.00152932154, 0.00314427959, 0.437393    , 0.806507945 , 0.742318034 , 0.00153831847, 0.004063786 , -1.06092381 , 3.65        , 23          , 50          , 0           , 0
0.0174650364, -0.008297434, -9.833403   , 0.000416439521, 0.00152932154, 0.00314427959, 0.43685472  , 0.80581826  , 0.744280636 , 0.00154261081, 0.004079031 , -1.06089234 , 3.66        , 23          , 11          , 0.0119222151, 0.0119220773
0.0105019677, -0.0182267632, -9.82267952 , 0.000416439521, 0.00152932154, 0.00314427959, 0.437674433 , 0.8059506   , 0.743020535 , 0.0015469041, 0.00409427658, -1.06086063 , 3.67        , 23          , 12          , 0.0587494075, 0
0.0304756165, -0.0117739756, -9.821644   , 0.000416439521, 0.00152932154, 0.00314427959, 0.437261552 , 0.805814564 , 0.742598    , 0.00155119807, 0.00410952  , -1.0608294  , 3.68        , 23          , 50          , 0           , 0
0.0208485238, -0.0198016278, -9.816786   , 0.000416439521, 0.00152932154, 0.00314427959, 0.437261552 , 0.805814564 , 0.742598    , 0.00155549182, 0.00412476435, -1.06079769 , 3.69        , 23          , 11          , 0.0119222151, 0.0119220773
0.0004141517, 0.004757235 , -9.791338   , 0.000423600315, 0.00149882585, 0.0031443364, 0.4372671   , 0.8060932   , 0.744843543 , 0.00157945463, 0.004054744 , -1.06076622 , 3.7         , 23          , 12          , 0.05980056  , 0
0.0124826552, -0.0315772779, -9.798859   , 0.000423600315, 0.00149882585, 0.0031443364, 0.437118    , 0.80651     , 0.7423171   , 0.00158381846, 0.004069683 , -1.06073475 , 3.71        , 23          , 50          , 0           , 0
0.0173293222, -0.0138732735, -9.815389   , 0.000423600315, 0.00149882585, 0.0031443364, 0.437128216 , 0.805955052 , 0.74414134  , 0.00158818334, 0.00408462062, -1.060703   , 3.72        , 23          , 11          , 0.0122018391, 0.0122016817
0.013588977 , 0.00737538142, -9.805719   , 0.000423600315, 0.00149882585, 0.0031443364, 0.437813938 , 0.8058108   , 0.74330163  , 0.0015925481, 0.004099559 , -1.06067157 , 3.73        , 23          , 12          , 0.05980056  , 0
0.0308769681, -0.0158006642, -9.828003   , 0.000423600315, 0.00149882585, 0.0031443364, 0.437813938 , 0.8058108   , 0.74330163  , 0.00159691309, 0.004114497 , -1.0606401  , 3.74        , 23          , 50          , 0           , 0
0.0125919832, -0.000199791044, -9.817988   , 0.000423600315, 0.00149882585, 0.0031443364, 0.436978042 , 0.806649745 , 0.7418957   , 0.0016012789, 0.0041294354, -1.06060863 , 3.75        , 23          , 11          , 0.0122018391, 0.0122016817
-0.00564478 , -0.00947373547, -9.809559   , 0.000423600315, 0.00149882585, 0.0031443364, 0.437266678 , 0.805954158 , 0.7444225   , 0.0016056454, 0.00414437242, -1.06057715 , 3.76        , 23          , 12          , 0.05980056  , 0
0.012125358 , 0.00276331231, -9.792217   , 0.000423600315, 0.00149882585, 0.0031443364, 0.437808454 , 0.8063662   , 0.742880762 , 0.00161001214, 0.00415931176, -1.06054568 , 3.77        , 23          , 50          , 0           , 0
0.0180764068, 0.00678639859, -9.79803    , 0.000423600315, 0.00149882585, 0.0031443364, 0.437265337 , 0.805815    , 0.7437207   , 0.00161437923, 0.00417424832, -1.06051421 , 3.78        , 23          , 11          , 0.0122018391, 0.0122016817
0.00871554  , -0.0129872067, -9.795989   , 0.000423600315, 0.00149882585, 0.0031443364, 0.437265337 , 0.805815    , 0.7437207   , 0.00161874725, 0.004189186 , -1.06048274 , 3.79        , 23          , 12          , 0.05980056  , 0
0.01082528  , 0.00338561274, -9.810283   , 0.000403308717, 0.0012593898, 0.003144658 , 0.437815845 , 0.805811    , 0.743863    , 0.00156229944, 0.00351932342, -1.060451   , 3.8         , 23          , 50          , 0           , 0
0.0270373058, -1.32918358E-05, -9.81432152 , 0.000403308717, 0.0012593898, 0.003144658 , 0.437116921 , 0.806787848 , 0.7425979   , 0.00156644371, 0.00353186764, -1.06041956 , 3.81        , 23          , 11          , 0.0123835932, 0.0123834219
-0.001751937, -0.0203740858, -9.812355   , 0.000403308717, 0.0012593898, 0.003144658 , 0.436991185 , 0.8059561   , 0.7442812   , 0.00157058821, 0.003544412 , -1.06038785 , 3.82        , 23          , 12          , 0.060858462 , 0
0.0115524922, -0.005334396, -9.796812   , 0.000403308717, 0.0012593898, 0.003144658 , 0.437810868 , 0.8062275   , 0.743301749 , 0.00157473353, 0.00355695724, -1.06035638 , 3.83        , 23          , 50          , 0           , 0
0.00286463229, -0.0119754709, -9.797356   , 0.000403308717, 0.0012593898, 0.003144658 , 0.436984956 , 0.806094468 , 0.742737532 , 0.00157887884, 0.00356950122, -1.06032491 , 3.84        , 23          , 11          , 0.0123835932, 0.0123834219
0.0193405636, 0.0009023491, -9.800338   , 0.000403308717, 0.0012593898, 0.003144658 , 0.436984956 , 0.806094468 , 0.742737532 , 0.00158302451, 0.00358204544, -1.06029344 , 3.85        , 23          , 12          , 0.060858462 , 0
0.0377205238, -0.00882183 , -9.809847   , 0.000403308717, 0.0012593898, 0.003144658 , 0.437822282 , 0.8052557   , 0.7445644   , 0.00158717053, 0.00359458919, -1.060262   , 3.86        , 23          , 50          , 0           , 0
0.0161712617, -0.0279622283, -9.805586   , 0.000403308717, 0.0012593898, 0.003144658 , 0.43739146  , 0.806785762 , 0.7424585   , 0.00159131666, 0.0036071334, -1.06023049 , 3.87        , 23          , 11          , 0.0123835932, 0.0123834219
0.0184819512, -0.0243989322, -9.803287   , 0.000403308717, 0.0012593898, 0.003144658 , 0.4368507   , 0.806234837 , 0.744000137 , 0.0015954636, 0.003619677 , -1.060199   , 3.88        , 23          , 12          , 0.060858462 , 0
0.0227224119, -0.0140394755, -9.805884   , 0.000403308717, 0.0012593898, 0.003144658 , 0.437537819 , 0.8060907   , 0.7435814   , 0.00159961078, 0.00363222021, -1.06016755 , 3.89        , 23          , 50          , 0           , 0
0.008990956 , 0.00160949293, -9.810758   , 0.000398200762, 0.00121802  , 0.003144689 , 0.437537819 , 0.8060907   , 0.7435814   , 0.00158832711, 0.00352389226, -1.06013608 , 3.9         , 23          , 11          , 0.0114286188, 0.0114284782
0.0201268271, -0.00720273564, -9.806734   , 0.000398200762, 0.00121802  , 0.003144689 , 0.437254965 , 0.8066479   , 0.742458    , 0.00159242016, 0.00353602343, -1.06010461 , 3.91        , 23          , 12          , 0.06192255  , 0
0.0230978169, -0.0211512148, -9.822209   , 0.000398200762, 0.00121802  , 0.003144689 , 0.437266141 , 0.806093156 , 0.744562864 , 0.00159651414, 0.00354815321, -1.06007314 , 3.92        , 23          , 50          , 0           , 0
0.0247156918, -0.004040012, -9.815269   , 0.000398200762, 0.00121802  , 0.003144689 , 0.437396318 , 0.806508362 , 0.743300438 , 0.00160060765, 0.003560283 , -1.06004167 , 3.93        , 23          , 11          , 0.0114286188, 0.0114284782
-0.00181752769, 0.0018716827, -9.821183   , 0.000398200762, 0.00121802  , 0.003144689 , 0.437262744 , 0.806231737 , 0.7438612   , 0.00160470232, 0.003572413 , -1.06001019 , 3.94        , 23          , 12          , 0.06192255  , 0
0.009922557 , 0.005117342 , -9.798978   , 0.000398200762, 0.00121802  , 0.003144689 , 0.437262744 , 0.806231737 , 0.7438612   , 0.00160879665, 0.00358454254, -1.05997872 , 3.95        , 23          , 50          , 0           , 0
0.004820699 , -0.005954653, -9.81807    , 0.000398200762, 0.00121802  , 0.003144689 , 0.437817335 , 0.805672169 , 0.744003236 , 0.00161289156, 0.00359667186, -1.05994725 , 3.96        , 23          , 11          , 0.0114286188, 0.0114284782
0.008178629 , 0.007916322 , -9.805734   , 0.000398200762, 0.00121802  , 0.003144689 , 0.437253952 , 0.8067868   , 0.742458045 , 0.001616987 , 0.00360880117, -1.05991578 , 3.97        , 23          , 12          , 0.06192255  , 0
-0.00325003453, -0.0004971754, -9.805402   , 0.000398200762, 0.00121802  , 0.003144689 , 0.436992764 , 0.8056783   , 0.744140744 , 0.00162108312, 0.00362093141, -1.05988431 , 3.98        , 23          , 50          , 0           , 0
0.0134538515, -0.00463446043, -9.830673   , 0.000398200762, 0.00121802  , 0.003144689 , 0.4376739   , 0.8060896   , 0.743160844 , 0.00162517966, 0.00363305956, -1.05985284 , 3.99        , 23          , 11          , 0.0114286188, 0.0114284782
0.0145138567, -0.0210294016, -9.819982   , 0.000390234636, 0.0012022201, 0.00314466422, 0.437123477 , 0.8059545   , 0.742737949 , 0.001605293 , 0.00359811564, -1.05982137 , 4           , 23          , 12          , 0.06299232  , 0
-0.00462184474, -0.003104059, -9.815819   , 0.000390234636, 0.0012022201, 0.00314466422, 0.437123477 , 0.8059545   , 0.742737949 , 0.00160930888, 0.003610087 , -1.0597899  , 4.01        , 23          , 50          , 0           , 0
0.02865773  , -0.0134983668, -9.828442   , 0.000390234636, 0.0012022201, 0.00314466422, 0.43754375  , 0.8056744   , 0.74442333  , 0.00161332509, 0.00362205878, -1.05975842 , 4.02        , 23          , 11          , 0.011278674 , 0.0112785306
0.0349182039, -0.01422035 , -9.808102   , 0.000390234636, 0.0012022201, 0.00314466422, 0.4373945   , 0.806369066 , 0.742458344 , 0.00161734177, 0.003634031 , -1.059727   , 4.03        , 23          , 12          , 0.06299232  , 0
0.004951482 , 0.002180012 , -9.817091   , 0.000390234636, 0.0012022201, 0.00314466422, 0.436719239 , 0.805541456 , 0.74428004  , 0.001621359 , 0.00364600145, -1.05969548 , 4.04        , 23          , 50          , 0           , 0
0.009290522 , -0.0065990705, -9.803606   , 0.000390234636, 0.0012022201, 0.00314466422, 0.43808642  , 0.80608654  , 0.7431623   , 0.00162537617, 0.00365797221, -1.059664   , 4.05        , 23          , 11          , 0.011278674 , 0.0112785306
0.009142367 , -0.0173627567, -9.814999   , 0.000390234636, 0.0012022201, 0.00314466422, 0.43808642  , 0.80608654  , 0.7431623   , 0.001629394 , 0.00366994436, -1.05963254 , 4.06        , 23          , 12          , 0.06299232  , 0
0.00127754826, -0.00353413471, -9.83025551 , 0.000390234636, 0.0012022201, 0.00314466422, 0.437258542 , 0.806092262 , 0.742317438 , 0.0016334122, 0.00368191442, -1.05960107 , 4.07        , 23          , 50          , 0           , 0
0.000260365661, -0.008598534, -9.81766    , 0.000390234636, 0.0012022201, 0.00314466422, 0.437269151 , 0.8058154   , 0.7448434   , 0.00163743051, 0.003693885 , -1.0595696  , 4.08        , 23          , 11          , 0.011278674 , 0.0112785306
0.008615518 , -0.0193088353, -9.797402   , 0.000390234636, 0.0012022201, 0.00314466422, 0.4375314   , 0.806646049 , 0.7428799   , 0.00164144952, 0.00370585546, -1.05953813 , 4.09        , 23          , 12          , 0.06299232  , 0
0.009905855 , -0.0246814229, -9.806933   , 0.00042328838, 0.000928852241, 0.00314528774, 0.437125355 , 0.805954754 , 0.7432993   , 0.00174270954, 0.00288318354, -1.0595057  , 4.1         , 23          , 50          , 0           , 0
0.0122550512, -0.018422585, -9.80235    , 0.00042328838, 0.000928852241, 0.00314528774, 0.437125355 , 0.805954754 , 0.7432993   , 0.00174703344, 0.00289241783, -1.05947423 , 4.11        , 23          , 11          , 0.0115481121, 0.0115479473
0.003934062 , -0.004601352, -9.815802   , 0.00042328838, 0.000928852241, 0.00314528774, 0.43754226  , 0.8058132   , 0.744283    , 0.00175135746, 0.00290165073, -1.05944252 , 4.12        , 23          , 12          , 0.0640673041, 0
-0.00454905676, 0.00141561218, -9.815325   , 0.00042328838, 0.000928852241, 0.00314528774, 0.436845958 , 0.8062343   , 0.742596745 , 0.0017556817, 0.002910885 , -1.059411   , 4.13        , 23          , 50          , 0           , 0
0.0179340057, -0.00696259039, -9.831581   , 0.00042328838, 0.000928852241, 0.00314528774, 0.436855674 , 0.8058184   , 0.7445613   , 0.00176000665, 0.00292011769, -1.05937934 , 4.14        , 23          , 11          , 0.0115481121, 0.0115479473
0.0214127079, -0.01516371 , -9.831645   , 0.00042328838, 0.000928852241, 0.00314528774, 0.4376754   , 0.8059507   , 0.7433012   , 0.00176433183, 0.00292935059, -1.05934811 , 4.15        , 23          , 12          , 0.0640673041, 0
0.0109731685, -0.0155977253, -9.81316948 , 0.00042328838, 0.000928852241, 0.00314528774, 0.436849028 , 0.8058176   , 0.742596567 , 0.001768657 , 0.00293858349, -1.0593164  , 4.16        , 23          , 50          , 0           , 0
0.0138254985, -0.00489311665, -9.79996    , 0.00042328838, 0.000928852241, 0.00314528774, 0.436849028 , 0.8058176   , 0.742596567 , 0.00177298242, 0.002947817 , -1.05928493 , 4.17        , 23          , 11          , 0.0115481121, 0.0115479473
0.012313284 , -0.0173811875, -9.819053   , 0.00042328838, 0.000928852241, 0.00314528774, 0.437407732 , 0.8055365   , 0.7445631   , 0.00177730853, 0.002957049 , -1.05925345 , 4.18        , 23          , 12          , 0.0640673041, 0
-0.0168363042, -0.00426910073, -9.814972   , 0.00042328838, 0.000928852241, 0.00314528774, 0.437532485 , 0.8063681   , 0.7425991   , 0.00178163475, 0.00296628173, -1.059222   , 4.19        , 23          , 50          , 0           , 0
0.0118185151, 0.009232738 , -9.807967   , 0.000409529661, 0.000880213454, 0.00314533222, 0.436857283 , 0.8054015   , 0.744140148 , 0.00174256333, 0.00282464665, -1.05919075 , 4.2         , 23          , 11          , 0.010030238 , 0.0100301243
0.0186152   , -0.0175436772, -9.811804   , 0.000409529661, 0.000880213454, 0.00314533222, 0.437951922 , 0.805809855 , 0.7434424   , 0.00174674776, 0.00283339387, -1.059159   , 4.21        , 23          , 12          , 0.06514705  , 0
0.0005471646, 0.009895522 , -9.811163   , 0.000409529661, 0.000880213454, 0.00314533222, 0.437951922 , 0.805809855 , 0.7434424   , 0.00175093254, 0.00284214085, -1.05912757 , 4.22        , 23          , 50          , 0           , 0
0.00129915075, -3.36859375E-05, -9.815769   , 0.000409529661, 0.000880213454, 0.00314533222, 0.436981559 , 0.8062331   , 0.742035866 , 0.00175511756, 0.002850888 , -1.0590961  , 4.23        , 23          , 11          , 0.010030238 , 0.0100301243
0.0226655081, 0.00737552345, -9.823753   , 0.000409529661, 0.000880213454, 0.00314533222, 0.4368592   , 0.805401742 , 0.7447015   , 0.0017593028, 0.00285963551, -1.05906463 , 4.24        , 23          , 12          , 0.06514705  , 0
0.0287338048, -0.006394008, -9.812116   , 0.000409529661, 0.000880213454, 0.00314533222, 0.4375364   , 0.8060906   , 0.743160367 , 0.001763488 , 0.00286838156, -1.05903316 , 4.25        , 23          , 50          , 0           , 0
-0.004563615, 0.00222790241, -9.804027   , 0.000409529661, 0.000880213454, 0.00314533222, 0.4372628   , 0.806092739 , 0.7435805   , 0.00176767376, 0.002877128 , -1.05900168 , 4.26        , 23          , 11          , 0.010030238 , 0.0100301243
0.0157558545, 0.004050169 , -9.790837   , 0.000409529661, 0.000880213454, 0.00314533222, 0.4372628   , 0.806092739 , 0.7435805   , 0.00177185948, 0.002885875 , -1.05897021 , 4.27        , 23          , 12          , 0.06514705  , 0
0.0215653218, -0.00181163114, -9.80487251 , 0.000409529661, 0.000880213454, 0.00314533222, 0.437541842 , 0.805674136 , 0.743862    , 0.00177604612, 0.002894621 , -1.05893874 , 4.28        , 23          , 50          , 0           , 0
0.01160861  , -0.00687399553, -9.829798   , 0.000409529661, 0.000880213454, 0.00314533222, 0.4372586   , 0.805953264 , 0.7420367   , 0.00178023288, 0.00290336739, -1.05890727 , 4.29        , 23          , 11          , 0.010030238 , 0.0100301243
0.0031341468, -0.0254273042, -9.812838   , 0.0004036063, 0.0008706795, 0.00314530986, 0.436990649 , 0.8060951   , 0.7444216   , 0.00176554581, 0.00288203941, -1.058876   , 4.3         , 23          , 12          , 0.06623117  , 0
0.0175369978, 0.0009392742, -9.801249   , 0.0004036063, 0.0008706795, 0.00314530986, 0.437948436 , 0.8060875   , 0.7430215   , 0.00176967273, 0.00289069046, -1.0588448  , 4.31        , 23          , 50          , 0           , 0
0.0256275758, -0.007459147, -9.841495   , 0.0004036063, 0.0008706795, 0.00314530986, 0.4372621   , 0.8056756   , 0.7424576   , 0.00177380024, 0.00289934129, -1.0588131  , 4.32        , 23          , 11          , 0.0101958578, 0.0101957191
0.0197847672, -0.000844171271, -9.808935   , 0.0004036063, 0.0008706795, 0.00314530986, 0.4372621   , 0.8056756   , 0.7424576   , 0.00177792739, 0.00290799234, -1.05878162 , 4.33        , 23          , 12          , 0.06623117  , 0
0.0125467852, -0.00248734467, -9.814848   , 0.0004036063, 0.0008706795, 0.00314530986, 0.437267154 , 0.8059542   , 0.7445628   , 0.00178205548, 0.00291664386, -1.05875015 , 4.34        , 23          , 50          , 0           , 0
0.020439662 , -0.0149404863, -9.801837   , 0.0004036063, 0.0008706795, 0.00314530986, 0.4373935   , 0.806508    , 0.7424584   , 0.00178618322, 0.002925294 , -1.05871844 , 4.35        , 23          , 11          , 0.0101958578, 0.0101957191
0.0288469717, 0.00168522075, -9.804362   , 0.0004036063, 0.0008706795, 0.00314530986, 0.4369897   , 0.806095    , 0.7441409   , 0.00179031177, 0.00293394458, -1.05868721 , 4.36        , 23          , 12          , 0.06623117  , 0
0.015499576 , -0.01434781 , -9.809076   , 0.0004036063, 0.0008706795, 0.00314530986, 0.437537879 , 0.8059517   , 0.743300736 , 0.00179444009, 0.0029425947, -1.0586555  , 4.37        , 23          , 50          , 0           , 0
0.0109912464, -0.0121083651, -9.797328   , 0.0004036063, 0.0008706795, 0.00314530986, 0.437537879 , 0.8059517   , 0.743300736 , 0.00179856888, 0.00295124575, -1.058624   , 4.38        , 23          , 11          , 0.0101958578, 0.0101957191
0.004351292 , 0.021597201 , -9.811041   , 0.0004036063, 0.0008706795, 0.00314530986, 0.437120557 , 0.8060933   , 0.742176652 , 0.001802698 , 0.00295989565, -1.05859256 , 4.39        , 23          , 12          , 0.06623117  , 0
0.00731981453, 0.008928146 , -9.817019   , 0.000347170921, 0.0008348483, 0.00314532081, 0.437542737 , 0.805813253 , 0.7444234   , 0.00162431609, 0.00285384059, -1.05856085 , 4.4         , 23          , 50          , 0           , 0
0.008431589 , -0.00430043973, -9.806298   , 0.000347170921, 0.0008348483, 0.00314532081, 0.43767038  , 0.8065062   , 0.7430207   , 0.00162787759, 0.00286213844, -1.05852914 , 4.41        , 23          , 11          , 0.0104365712, 0.0104364064
0.0230803564, 0.009827193 , -9.792564   , 0.000347170921, 0.0008348483, 0.00314532081, 0.437263817 , 0.8059538   , 0.743580461 , 0.00163143978, 0.00287043513, -1.05849767 , 4.42        , 23          , 12          , 0.06731925  , 0
0.0204572715, -0.0148850642, -9.808611   , 0.000347170921, 0.0008348483, 0.00314532081, 0.437263817 , 0.8059538   , 0.743580461 , 0.00163500162, 0.00287873275, -1.0584662  , 4.43        , 23          , 50          , 0           , 0
0.000740368851, -0.003796499, -9.797288   , 0.000347170921, 0.0008348483, 0.00314532081, 0.437678665 , 0.8060901   , 0.744564235 , 0.00163856428, 0.002887029 , -1.05843472 , 4.44        , 23          , 11          , 0.0104365712, 0.0104364064
0.00388815766, -0.00345866 , -9.789595   , 0.000347170921, 0.0008348483, 0.00314532081, 0.436840475 , 0.806789756 , 0.742175937 , 0.00164212682, 0.00289532566, -1.05840325 , 4.45        , 23          , 12          , 0.06731925  , 0
-0.004235874, -0.005891973, -9.80771351 , 0.000347170921, 0.0008348483, 0.00314532081, 0.437128156 , 0.8060941   , 0.7444221   , 0.00164568983, 0.00290362351, -1.05837178 , 4.46        , 23          , 50          , 0           , 0
0.0277133286, -0.0140430946, -9.81535149 , 0.000347170921, 0.0008348483, 0.00314532081, 0.4379504   , 0.8059487   , 0.7433021   , 0.0016492526, 0.00291191926, -1.05834031 , 4.47        , 23          , 11          , 0.0104365712, 0.0104364064
0.0126413768, -0.0250708982, -9.820025   , 0.000347170921, 0.0008348483, 0.00314532081, 0.436983466 , 0.8062333   , 0.7425972   , 0.00165281631, 0.00292021572, -1.05830884 , 4.48        , 23          , 12          , 0.06731925  , 0
0.004309936 , -0.008279154, -9.809511   , 0.000347170921, 0.0008348483, 0.00314532081, 0.436983466 , 0.8062333   , 0.7425972   , 0.00165638  , 0.00292851217, -1.05827737 , 4.49        , 23          , 50          , 0           , 0
0.007438119 , -0.0118645448, -9.819922   , 0.00033431896, 0.000794832653, 0.0031453867, 0.4374057   , 0.8058143   , 0.7445632   , 0.0016170647, 0.00280542439, -1.0582459  , 4.5         , 23          , 11          , 0.0105231935, 0.010523011
-0.00525044231, 0.0145074856, -9.810239   , 0.00033431896, 0.000794832653, 0.0031453867, 0.437392473 , 0.8066469   , 0.742458463 , 0.001620496 , 0.00281332247, -1.05821443 , 4.51        , 23          , 12          , 0.0684109256, 0
0.003878531 , -0.009495759, -9.825785   , 0.00033431896, 0.000794832653, 0.0031453867, 0.436716735 , 0.8058192   , 0.74413985  , 0.00162392773, 0.00282121915, -1.05818272 , 4.52        , 23          , 50          , 0           , 0
0.0457602665, -0.013518746, -9.804893   , 0.00033431896, 0.000794832653, 0.0031453867, 0.437815279 , 0.8059499   , 0.7440033   , 0.00162736024, 0.0028291163, -1.05815125 , 4.53        , 23          , 11          , 0.0105231935, 0.010523011
0.0183877144, -0.00567577966, -9.823891   , 0.00033431896, 0.000794832653, 0.0031453867, 0.437815279 , 0.8059499   , 0.7440033   , 0.00163079263, 0.00283701345, -1.05811977 , 4.54        , 23          , 12          , 0.0684109256, 0
0.0157212242, -0.00249467976, -9.820256   , 0.00033431896, 0.000794832653, 0.0031453867, 0.436982036 , 0.806233168 , 0.7421762   , 0.00163422525, 0.00284491014, -1.0580883  , 4.55        , 23          , 50          , 0           , 0
0.0140718846, -0.0179886911, -9.803695   , 0.00033431896, 0.000794832653, 0.0031453867, 0.437267721 , 0.8058153   , 0.744422436 , 0.0016376581, 0.00285280729, -1.05805683 , 4.56        , 23          , 11          , 0.0105231935, 0.010523011
0.0130693763, -0.0251521859, -9.810991   , 0.00033431896, 0.000794832653, 0.0031453867, 0.437397957 , 0.8060915   , 0.7428792   , 0.00164109131, 0.002860704 , -1.05802536 , 4.57        , 23          , 12          , 0.0684109256, 0
0.007088775 , -0.0029545445, -9.802226   , 0.00033431896, 0.000794832653, 0.0031453867, 0.437261373 , 0.8060926   , 0.7431595   , 0.00164452475, 0.00286860135, -1.05799389 , 4.58        , 23          , 50          , 0           , 0
0.00246739388, -0.0100811385, -9.806825   , 0.00033431896, 0.000794832653, 0.0031453867, 0.437261373 , 0.8060926   , 0.7431595   , 0.00164795807, 0.002876497 , -1.05796218 , 4.59        , 23          , 11          , 0.0105231935, 0.010523011
-0.00836186949, -0.009455295, -9.806407   , 0.000321591739, 0.0007397663, 0.00314550358, 0.437539726 , 0.806090951 , 0.7441428   , 0.00160782377, 0.002699936 , -1.05793047 , 4.6         , 23          , 12          , 0.06950586  , 0
-0.0161710754, -0.01575856 , -9.79475    , 0.000321591739, 0.0007397663, 0.00314550358, 0.437122524 , 0.8059544   , 0.7424573   , 0.00161112507, 0.00270728278, -1.057899   , 4.61        , 23          , 50          , 0           , 0
-0.0105591547, -0.007512957, -9.81814    , 0.000321591739, 0.0007397663, 0.00314550358, 0.436988682 , 0.8062339   , 0.744141    , 0.00161442626, 0.00271462975, -1.05786753 , 4.62        , 23          , 11          , 0.0105641652, 0.0105639687
0.0256825164, -0.000421304227, -9.81704    , 0.000321591739, 0.0007397663, 0.00314550358, 0.438226461 , 0.805807769 , 0.743303    , 0.0016177278, 0.00272197649, -1.057836   , 4.63        , 23          , 12          , 0.06950586  , 0
0.00928433053, 0.0209823512, -9.801091   , 0.000321591739, 0.0007397663, 0.00314550358, 0.437120438 , 0.8063712   , 0.742738068 , 0.00162102946, 0.00272932346, -1.05780458 , 4.64        , 23          , 50          , 0           , 0
0.0115740951, -0.0061245244, -9.810821   , 0.000321591739, 0.0007397663, 0.00314550358, 0.437120438 , 0.8063712   , 0.742738068 , 0.00162433158, 0.00273667  , -1.05777311 , 4.65        , 23          , 11          , 0.0105641652, 0.0105639687
0.0205058735, -0.0112996288, -9.804513   , 0.000321591739, 0.0007397663, 0.00314550358, 0.437268734 , 0.8056764   , 0.7444224   , 0.00162763393, 0.00274401647, -1.05774164 , 4.66        , 23          , 12          , 0.06950586  , 0
0.0171862468, 0.00383804552, -9.822902   , 0.000321591739, 0.0007397663, 0.00314550358, 0.437254429 , 0.806786835 , 0.742598355 , 0.00163093617, 0.00275136274, -1.05770993 , 4.67        , 23          , 50          , 0           , 0
0.0223795269, -0.007254441, -9.804919   , 0.000321591739, 0.0007397663, 0.00314550358, 0.436993778 , 0.80553937  , 0.7441407   , 0.00163423875, 0.00275870971, -1.05767846 , 4.68        , 23          , 11          , 0.0105641652, 0.0105639687
0.008960668 , -0.00106018223, -9.816203   , 0.000321591739, 0.0007397663, 0.00314550358, 0.437950581 , 0.8056707   , 0.7427407   , 0.00163754122, 0.00276605529, -1.057647   , 4.69        , 23          , 12          , 0.06950586  , 0
0.0245597921, -0.0156862047, -9.829381   , 0.0003071031, 0.000722034834, 0.00314553012, 0.437950581 , 0.8056707   , 0.7427407   , 0.00159100734, 0.0027130153, -1.05761552 , 4.7         , 23          , 50          , 0           , 0
-0.00154801551, -0.00728958659, -9.808168   , 0.0003071031, 0.000722034834, 0.00314553012, 0.437117577 , 0.8063709   , 0.741896033 , 0.00159416383, 0.00272018532, -1.057584   , 4.71        , 23          , 11          , 0.0105009535, 0.0105007505
-0.00181729428, 0.00358864688, -9.80987549 , 0.0003071031, 0.000722034834, 0.00314553012, 0.436994731 , 0.8055395   , 0.744421363 , 0.00159732031, 0.00272735558, -1.05755258 , 4.72        , 23          , 12          , 0.07060375  , 0
0.00541763334, 0.004364103 , -9.808488   , 0.0003071031, 0.000722034834, 0.00314553012, 0.437533438 , 0.806368232 , 0.7428798   , 0.0016004775, 0.00273452583, -1.0575211  , 4.73        , 23          , 50          , 0           , 0
-0.0109107634, -0.027927218, -9.811104   , 0.0003071031, 0.000722034834, 0.00314553012, 0.4372639   , 0.805814862 , 0.7432997   , 0.00160363468, 0.00274169561, -1.05748963 , 4.74        , 23          , 11          , 0.0105009535, 0.0105007505
0.0198819414, -0.0259939358, -9.832203   , 0.0003071031, 0.000722034834, 0.00314553012, 0.4372639   , 0.805814862 , 0.7432997   , 0.0016067921, 0.0027488654, -1.05745816 , 4.75        , 23          , 12          , 0.07060375  , 0
0.0209906939, -0.0120601784, -9.823036   , 0.0003071031, 0.000722034834, 0.00314553012, 0.4375444   , 0.8052574   , 0.7437214   , 0.00160995  , 0.00275603519, -1.05742669 , 4.76        , 23          , 50          , 0           , 0
0.009244972 , -0.009316776, -9.80318    , 0.0003071031, 0.000722034834, 0.00314553012, 0.437116563 , 0.806509852 , 0.7418961   , 0.001613108 , 0.002763205 , -1.05739522 , 4.77        , 23          , 11          , 0.0105009535, 0.0105007505
0.003453467 , -0.002969386, -9.793205   , 0.0003071031, 0.000722034834, 0.00314553012, 0.4368558   , 0.8055403   , 0.743999839 , 0.001616266 , 0.0027703743, -1.05736375 , 4.78        , 23          , 12          , 0.07060375  , 0
0.0101266811, -0.0124018192, -9.814949   , 0.0003071031, 0.000722034834, 0.00314553012, 0.4376714   , 0.8063673   , 0.743020654 , 0.00161942444, 0.00277754385, -1.05733228 , 4.79        , 23          , 50          , 0           , 0
0.0116846832, 0.000230362639, -9.813471   , 0.0003035284, 0.000704037 , 0.003145545 , 0.437672555 , 0.805950344 , 0.7424592   , 0.00160980155, 0.00272200955, -1.05730081 , 4.8         , 23          , 11          , 0.0106405653, 0.0106403446
0.0164704211, 0.0164554082, -9.815109   , 0.0003035284, 0.000704037 , 0.003145545 , 0.437672555 , 0.805950344 , 0.7424592   , 0.00161292276, 0.00272899913, -1.05726933 , 4.81        , 23          , 12          , 0.0717042759, 0
0.00561941  , -0.0131624546, -9.823554   , 0.0003035284, 0.000704037 , 0.003145545 , 0.4375428   , 0.805674255 , 0.744142652 , 0.00161604409, 0.0027359887, -1.05723786 , 4.82        , 23          , 50          , 0           , 0
0.0028950423, -0.0148831662, -9.828999   , 0.0003035284, 0.000704037 , 0.003145545 , 0.437668979 , 0.806506038 , 0.742599666 , 0.00161916541, 0.002742978 , -1.05720639 , 4.83        , 23          , 11          , 0.0106405653, 0.0106403446
0.0177553259, -0.01353179 , -9.802736   , 0.0003035284, 0.000704037 , 0.003145545 , 0.4368528   , 0.805818    , 0.7437193   , 0.00162228744, 0.00274996762, -1.05717492 , 4.84        , 23          , 12          , 0.0717042759, 0
0.0195153374, -0.0167092029, -9.805017   , 0.0003035284, 0.000704037 , 0.003145545 , 0.4378159   , 0.805672    , 0.743582249 , 0.00162540935, 0.00275695673, -1.05714345 , 4.85        , 23          , 50          , 0           , 0
0.0222480725, 0.0117806327, -9.808357   , 0.0003035284, 0.000704037 , 0.003145545 , 0.4378159   , 0.805672    , 0.743582249 , 0.00162853114, 0.00276394584, -1.057112   , 4.86        , 23          , 11          , 0.0106405653, 0.0106403446
0.0390949138, -0.004490597, -9.789025   , 0.0003035284, 0.000704037 , 0.003145545 , 0.437394083 , 0.806230068 , 0.742037237 , 0.00163165363, 0.00277093542, -1.05708051 , 4.87        , 23          , 12          , 0.0717042759, 0
0.0373467654, -0.002563035, -9.799854   , 0.0003035284, 0.000704037 , 0.003145545 , 0.437130749 , 0.805677354 , 0.74428153  , 0.00163477613, 0.002777924 , -1.057049   , 4.88        , 23          , 50          , 0           , 0
0.0167736262, 0.00697113248, -9.817906   , 0.0003035284, 0.000704037 , 0.003145545 , 0.437260836 , 0.806231558 , 0.743299842 , 0.00163789908, 0.00278491271, -1.05701756 , 4.89        , 23          , 11          , 0.0106405653, 0.0106403446
-0.00271578925, 0.00190122973, -9.822992   , 0.0002830848, 0.000694537535, 0.003145575 , 0.4372643   , 0.80595386  , 0.74372077  , 0.00156812707, 0.00275848038, -1.05698562 , 4.9         , 23          , 12          , 0.07280716  , 0
0.008779287 , -0.0123575013, -9.817662   , 0.0002830848, 0.000694537535, 0.003145575 , 0.4372643   , 0.80595386  , 0.74372077  , 0.00157104468, 0.00276537635, -1.05695415 , 4.91        , 23          , 50          , 0           , 0
-0.0107135344, -0.0144347288, -9.801493   , 0.0002830848, 0.000694537535, 0.003145575 , 0.437678725 , 0.805951059 , 0.744283557 , 0.001573963 , 0.00277227233, -1.05692267 , 4.92        , 23          , 11          , 0.0107572833, 0.0107570458
0.02719881  , -0.0180956516, -9.816747   , 0.0002830848, 0.000694537535, 0.003145575 , 0.437258    , 0.8062312   , 0.7424578   , 0.00157688127, 0.002779168 , -1.0568912  , 4.93        , 23          , 12          , 0.07280716  , 0
0.0133892847, -0.009128265, -9.834328   , 0.0002830848, 0.000694537535, 0.003145575 , 0.436852723 , 0.805957    , 0.744       , 0.00157979981, 0.00278606382, -1.05685973 , 4.94        , 23          , 50          , 0           , 0
-0.005151979, -0.007634818, -9.814056   , 0.0002830848, 0.000694537535, 0.003145575 , 0.438087553 , 0.8058086   , 0.742881536 , 0.00158271857, 0.00279295957, -1.05682826 , 4.95        , 23          , 11          , 0.0107572833, 0.0107570458
0.0138468649, -0.00310963765, -9.79678249 , 0.0002830848, 0.000694537535, 0.003145575 , 0.437124044 , 0.8058156   , 0.7425975   , 0.0015856371, 0.002799855 , -1.05679679 , 4.96        , 23          , 12          , 0.07280716  , 0
0.005765568 , -0.00197598524, -9.808544   , 0.0002830848, 0.000694537535, 0.003145575 , 0.437124044 , 0.8058156   , 0.7425975   , 0.00158855633, 0.00280675059, -1.05676532 , 4.97        , 23          , 50          , 0           , 0
0.0013863761, 0.00496048853, -9.817982   , 0.0002830848, 0.000694537535, 0.003145575 , 0.43754518  , 0.8056745   , 0.7448443   , 0.00159147556, 0.00281364587, -1.05673385 , 4.98        , 23          , 11          , 0.0107572833, 0.0107570458
-0.008414667, 0.014117918 , -9.811608   , 0.0002830848, 0.000694537535, 0.003145575 , 0.4373914   , 0.8069248   , 0.74273926  , 0.00159439514, 0.00282054115, -1.05670238 , 4.99        , 23          , 12          , 0.07280716  , 0
0.0265567079, 0.00161868136, -9.791724   , 0.000244002193, 0.000646637753, 0.003145785 , 0.436716855 , 0.805541158 , 0.7435784   , 0.00145457219, 0.00265433756, -1.05666947 , 5           , 23          , 50          , 0           , 0
0.0315326   , -0.00100657344, -9.812508   , 0.000244002193, 0.000646637753, 0.003145785 , 0.437677383 , 0.8058119   , 0.743581831 , 0.00145709573, 0.002660758 , -1.056638   , 5.01        , 23          , 11          , 0.01089637  , 0.0108961156
0.01258811  , -0.000641044229, -9.819348   , 0.000244002193, 0.000646637753, 0.003145785 , 0.437677383 , 0.8058119   , 0.743581831 , 0.00145961961, 0.00266717887, -1.05660677 , 5.02        , 23          , 12          , 0.0739121661, 0
0.0257571824, 0.00496238843, -9.81157    , 0.000244002193, 0.000646637753, 0.003145785 , 0.437399119 , 0.805674553 , 0.742317736 , 0.00146214373, 0.002673599 , -1.05657506 , 5.03        , 23          , 50          , 0           , 0
0.0136660738, -0.01655039 , -9.81271648 , 0.000244002193, 0.000646637753, 0.003145785 , 0.437270224 , 0.8055375   , 0.7445626   , 0.00146466773, 0.00268001948, -1.05654359 , 5.04        , 23          , 11          , 0.01089637  , 0.0108961156
0.014889962 , -0.0229902435, -9.802382   , 0.000244002193, 0.000646637753, 0.003145785 , 0.437811881 , 0.8060886   , 0.7433017   , 0.00146719231, 0.00268643955, -1.05651212 , 5.05        , 23          , 12          , 0.0739121661, 0
0.0133774243, -0.007878413, -9.82121849 , 0.000244002193, 0.000646637753, 0.003145785 , 0.4367174   , 0.8054023   , 0.743437946 , 0.0014697169, 0.00269285962, -1.05648065 , 5.06        , 23          , 50          , 0           , 0
0.0196352359, 0.0147015415, -9.828213   , 0.000244002193, 0.000646637753, 0.003145785 , 0.4367174   , 0.8054023   , 0.743437946 , 0.00147224171, 0.00269927969, -1.05644917 , 5.07        , 23          , 11          , 0.01089637  , 0.0108961156
0.0100459084, -0.015230394, -9.800974   , 0.000244002193, 0.000646637753, 0.003145785 , 0.4375428   , 0.805674255 , 0.744142652 , 0.00147476664, 0.00270569976, -1.0564177  , 5.08        , 23          , 12          , 0.0739121661, 0
-0.00284610083, -0.00279950164, -9.801357   , 0.000244002193, 0.000646637753, 0.003145785 , 0.436982453 , 0.806372166 , 0.7425972   , 0.00147729216, 0.00271211914, -1.05638623 , 5.09        , 23          , 50          , 0           , 0
0.00350547349, 0.00191393483, -9.781868   , 0.000175390043, 0.000471036416, 0.003146505 , 0.436856747 , 0.805540442 , 0.7442805   , 0.00122233236, 0.002069769 , -1.05635118 , 5.1         , 23          , 11          , 0.0109397778, 0.0109395152
